#time,accel_x,accel_y,accel_z
1373.981894,7254.018232,-6365.771101,919.314598
1373.982224,7179.997637,-6439.791695,919.314598
1373.982554,7328.038826,-6069.688724,995.924147
1373.982884,7328.038826,-6217.729913,1072.533697
1373.983214,7105.977043,-6143.709319,1532.190996
1373.983544,6957.935855,-6291.750507,689.485948
1373.983874,7179.997637,-6439.791695,842.705048
1373.984204,7105.977043,-6365.771101,1072.533697
1373.984534,6809.894666,-6365.771101,842.705048
1373.984864,7179.997637,-6439.791695,1225.752797
1373.985195,6735.874072,-6513.812290,1149.143247
1373.985525,6735.874072,-6365.771101,842.705048
1373.985855,6587.832884,-6735.874072,919.314598
1373.986185,7031.956449,-6513.812290,1149.143247
1373.986515,6291.750507,-6661.853478,919.314598
1373.986845,6587.832884,-6883.915261,612.876398
1373.987175,6513.812290,-6883.915261,1072.533697
1373.987505,6735.874072,-6883.915261,689.485948
1373.987835,7254.018232,-6661.853478,1302.362347
1373.988165,7105.977043,-6661.853478,1302.362347
1373.988495,7105.977043,-6439.791695,919.314598
1373.988825,7179.997637,-6439.791695,995.924147
1373.989155,7031.956449,-6809.894666,1072.533697
1373.989486,6957.935855,-6365.771101,995.924147
1373.989816,6883.915261,-6291.750507,919.314598
1373.990146,7179.997637,-6513.812290,919.314598
1373.990476,6957.935855,-6439.791695,1378.971896
1373.990806,7105.977043,-6365.771101,1225.752797
1373.991136,6883.915261,-6365.771101,1072.533697
1373.991466,6735.874072,-6513.812290,1072.533697
1373.991796,6587.832884,-6291.750507,995.924147
1373.992126,6661.853478,-6513.812290,842.705048
1373.992456,7105.977043,-6291.750507,1455.581446
1373.992786,6809.894666,-6957.935855,1149.143247
1373.993116,6809.894666,-6957.935855,1302.362347
1373.993446,6809.894666,-7031.956449,1072.533697
1373.993777,7031.956449,-6809.894666,995.924147
1373.994107,6735.874072,-7105.977043,995.924147
1373.994437,6661.853478,-6735.874072,1072.533697
1373.994767,6735.874072,-7179.997637,919.314598
1373.995097,7105.977043,-6661.853478,1149.143247
1373.995427,7179.997637,-6069.688724,1149.143247
1373.995757,7105.977043,-6217.729913,919.314598
1373.996087,7254.018232,-6365.771101,919.314598
1373.996417,7328.038826,-6809.894666,995.924147
1373.996747,7105.977043,-6217.729913,1225.752797
1373.997077,7328.038826,-6587.832884,1072.533697
1373.997407,7179.997637,-5921.647536,766.095498
1373.997737,7254.018232,-6365.771101,1302.362347
1373.998068,7105.977043,-6587.832884,919.314598
1373.998398,7031.956449,-6439.791695,689.485948
1373.998728,7105.977043,-6439.791695,1302.362347
1373.999058,6809.894666,-6439.791695,1072.533697
1373.999388,6809.894666,-6439.791695,689.485948
1373.999718,6957.935855,-6809.894666,1072.533697
1374.000048,7105.977043,-6883.915261,995.924147
1374.000378,7105.977043,-6365.771101,919.314598
1374.000708,7031.956449,-6661.853478,1302.362347
1374.001038,6735.874072,-6661.853478,1149.143247
1374.001368,6809.894666,-6883.915261,1302.362347
1374.001698,6587.832884,-6513.812290,766.095498
1374.002028,6809.894666,-7179.997637,995.924147
1374.002359,7550.100608,-6809.894666,1072.533697
1374.002689,7179.997637,-6661.853478,1532.190996
1374.003019,6883.915261,-6735.874072,842.705048
1374.003349,7031.956449,-6439.791695,995.924147
1374.003679,6809.894666,-7031.956449,766.095498
1374.004009,6439.791695,-6809.894666,842.705048
1374.004339,6735.874072,-6661.853478,1532.190996
1374.004669,7254.018232,-6587.832884,766.095498
1374.004999,7105.977043,-6143.709319,1149.143247
1374.005329,7105.977043,-6291.750507,1302.362347
1374.005659,6735.874072,-6365.771101,919.314598
1374.005989,6735.874072,-5995.668130,842.705048
1374.006319,6809.894666,-6365.771101,919.314598
1374.006650,6661.853478,-6661.853478,612.876398
1374.006980,6661.853478,-6661.853478,1072.533697
1374.007310,7105.977043,-6809.894666,995.924147
1374.007640,6735.874072,-6809.894666,1685.410096
1374.007970,6735.874072,-6883.915261,995.924147
1374.008300,6809.894666,-6661.853478,1225.752797
1374.008630,6661.853478,-7105.977043,612.876398
1374.008960,7105.977043,-6957.935855,842.705048
1374.009290,6735.874072,-6957.935855,1072.533697
1374.009620,7105.977043,-6735.874072,842.705048
1374.009950,7328.038826,-6143.709319,919.314598
1374.010280,7179.997637,-6291.750507,1149.143247
1374.010610,7550.100608,-6587.832884,1532.190996
1374.010941,7179.997637,-6439.791695,689.485948
1374.011271,7254.018232,-6661.853478,995.924147
1374.011601,7179.997637,-6439.791695,1072.533697
1374.011931,7698.141797,-6291.750507,536.266849
1374.012261,7328.038826,-6365.771101,842.705048
1374.012591,7179.997637,-6587.832884,1072.533697
1374.012921,7105.977043,-6217.729913,1072.533697
1374.013251,7105.977043,-6365.771101,919.314598
1374.013581,6735.874072,-6587.832884,919.314598
1374.013911,6513.812290,-5995.668130,995.924147
1374.014241,6735.874072,-6883.915261,1149.143247
1374.014571,6735.874072,-6957.935855,1378.971896
1374.014901,6957.935855,-6439.791695,995.924147
1374.015232,7031.956449,-6587.832884,536.266849
1374.015562,6661.853478,-6661.853478,1225.752797
1374.015892,6661.853478,-6735.874072,766.095498
1374.016222,6661.853478,-6883.915261,842.705048
1374.016552,7105.977043,-6587.832884,1225.752797
1374.016882,7328.038826,-6735.874072,842.705048
1374.017212,7179.997637,-6661.853478,1149.143247
1374.017542,7105.977043,-6069.688724,1072.533697
1374.017872,7105.977043,-6291.750507,689.485948
1374.018202,7105.977043,-6587.832884,2068.457845
1374.018532,7105.977043,-6439.791695,919.314598
1374.018862,6957.935855,-6291.750507,1149.143247
1374.019192,7031.956449,-6439.791695,689.485948
1374.019523,7105.977043,-6809.894666,1378.971896
1374.019853,6735.874072,-5921.647536,919.314598
1374.020183,6957.935855,-6513.812290,1225.752797
1374.020513,7105.977043,-6143.709319,1072.533697
1374.020843,7031.956449,-6735.874072,919.314598
1374.021173,6587.832884,-6439.791695,1378.971896
1374.021503,6587.832884,-6587.832884,919.314598
1374.021833,6883.915261,-6883.915261,1072.533697
1374.022163,6735.874072,-6883.915261,1149.143247
1374.022493,6439.791695,-6735.874072,995.924147
1374.022823,6957.935855,-6809.894666,1072.533697
1374.023153,6661.853478,-6809.894666,766.095498
1374.023483,6957.935855,-7105.977043,842.705048
1374.023814,6587.832884,-7031.956449,919.314598
1374.024144,6809.894666,-7031.956449,995.924147
1374.024474,7550.100608,-6883.915261,612.876398
1374.024804,7550.100608,-6587.832884,1072.533697
1374.025134,7254.018232,-6365.771101,995.924147
1374.025464,7402.059420,-6439.791695,1149.143247
1374.025794,7105.977043,-6513.812290,1532.190996
1374.026124,7328.038826,-6513.812290,1149.143247
1374.026454,7105.977043,-5773.606348,536.266849
1374.026784,7402.059420,-5625.565159,1378.971896
1374.027114,7624.121203,-5921.647536,995.924147
1374.027444,7254.018232,-5995.668130,1072.533697
1374.027774,7105.977043,-6217.729913,766.095498
1374.028105,7105.977043,-6217.729913,995.924147
1374.028435,7105.977043,-6291.750507,1532.190996
1374.028765,6661.853478,-6439.791695,1149.143247
1374.029095,6957.935855,-6513.812290,1149.143247
1374.029425,7105.977043,-6587.832884,1225.752797
1374.029755,6883.915261,-6439.791695,919.314598
1374.030085,6957.935855,-6809.894666,612.876398
1374.030415,6809.894666,-6587.832884,1072.533697
1374.030745,6587.832884,-7179.997637,766.095498
1374.031075,6513.812290,-6809.894666,1149.143247
1374.031405,6439.791695,-7179.997637,1149.143247
1374.031735,7105.977043,-6957.935855,919.314598
1374.032065,7105.977043,-6365.771101,1302.362347
1374.032396,7254.018232,-6587.832884,1072.533697
1374.032726,7179.997637,-6809.894666,1072.533697
1374.033056,7105.977043,-6809.894666,995.924147
1374.033386,7402.059420,-6513.812290,306.438199
1374.033716,7105.977043,-6069.688724,1455.581446
1374.034046,7031.956449,-6439.791695,1225.752797
1374.034376,7105.977043,-6587.832884,1149.143247
1374.034706,7105.977043,-6143.709319,1455.581446
1374.035036,7031.956449,-6143.709319,766.095498
1374.035366,6513.812290,-6587.832884,919.314598
1374.035696,6513.812290,-6513.812290,1072.533697
1374.036026,6439.791695,-6513.812290,1072.533697
1374.036356,6735.874072,-6809.894666,1225.752797
1374.036687,6957.935855,-6883.915261,1225.752797
1374.037017,6883.915261,-6365.771101,919.314598
1374.037347,7105.977043,-6809.894666,919.314598
1374.037677,7031.956449,-6809.894666,1455.581446
1374.038007,6957.935855,-6735.874072,383.047749
1374.038337,6587.832884,-6809.894666,689.485948
1374.038667,6735.874072,-6957.935855,766.095498
1374.038997,6957.935855,-6735.874072,766.095498
1374.039327,7031.956449,-5995.668130,1532.190996
1374.039657,7179.997637,-6883.915261,1455.581446
1374.039987,7254.018232,-6365.771101,919.314598
1374.040317,7254.018232,-6587.832884,995.924147
1374.040647,7031.956449,-6957.935855,612.876398
1374.040978,7550.100608,-6143.709319,1762.019645
1374.041308,7328.038826,-5995.668130,1072.533697
1374.041638,7254.018232,-6291.750507,919.314598
1374.041968,7105.977043,-6439.791695,995.924147
1374.042298,7105.977043,-6291.750507,919.314598
1374.042628,7105.977043,-6365.771101,1225.752797
1374.042958,6809.894666,-6291.750507,1302.362347
1374.043288,6661.853478,-6291.750507,842.705048
1374.043618,6809.894666,-6735.874072,766.095498
1374.043948,7105.977043,-6513.812290,919.314598
1374.044278,6735.874072,-6439.791695,1225.752797
1374.044608,6809.894666,-6587.832884,919.314598
1374.044938,6587.832884,-6439.791695,1149.143247
1374.045269,6735.874072,-6883.915261,766.095498
1374.045599,6883.915261,-6809.894666,383.047749
1374.045929,6809.894666,-6883.915261,1072.533697
1374.046259,6809.894666,-7105.977043,612.876398
1374.046589,7254.018232,-6291.750507,1302.362347
1374.046919,7254.018232,-6365.771101,1378.971896
1374.047249,6809.894666,-6809.894666,995.924147
1374.047579,7105.977043,-6439.791695,842.705048
1374.047909,6883.915261,-6587.832884,995.924147
1374.048239,7105.977043,-6735.874072,995.924147
1374.048569,7624.121203,-6217.729913,995.924147
1374.048898,7476.080014,-6291.750507,995.924147
1374.049228,7105.977043,-6587.832884,1302.362347
1374.049558,6883.915261,-6587.832884,1072.533697
1374.049887,7328.038826,-6291.750507,842.705048
1374.050217,7105.977043,-6587.832884,689.485948
1374.050547,6513.812290,-6735.874072,1149.143247
1374.050876,6661.853478,-6957.935855,1149.143247
1374.051206,7031.956449,-6957.935855,1302.362347
1374.051536,6809.894666,-6587.832884,1149.143247
1374.051865,6661.853478,-6661.853478,842.705048
1374.052195,6809.894666,-6809.894666,1225.752797
1374.052525,6883.915261,-6587.832884,766.095498
1374.052855,7105.977043,-6883.915261,459.657299
1374.053184,6513.812290,-6439.791695,689.485948
1374.053514,6809.894666,-7105.977043,919.314598
1374.053844,7254.018232,-6735.874072,1149.143247
1374.054173,7328.038826,-6217.729913,1225.752797
1374.054503,7402.059420,-6439.791695,919.314598
1374.054833,7254.018232,-6587.832884,1302.362347
1374.055162,6957.935855,-6883.915261,1225.752797
1374.055492,7031.956449,-6365.771101,842.705048
1374.055822,7328.038826,-5995.668130,842.705048
1374.056151,7402.059420,-5995.668130,383.047749
1374.056481,7698.141797,-5921.647536,1378.971896
1374.056811,6735.874072,-6291.750507,1302.362347
1374.057141,7031.956449,-6069.688724,919.314598
1374.057470,7031.956449,-6217.729913,1149.143247
1374.057800,6661.853478,-6291.750507,995.924147
1374.058130,6587.832884,-6513.812290,919.314598
1374.058459,6735.874072,-6513.812290,1072.533697
1374.058789,6883.915261,-6883.915261,1225.752797
1374.059119,7179.997637,-6735.874072,919.314598
1374.059448,6661.853478,-6587.832884,919.314598
1374.059778,6513.812290,-6735.874072,1072.533697
1374.060108,7105.977043,-6587.832884,842.705048
1374.060438,6809.894666,-6513.812290,766.095498
1374.060767,6809.894666,-6957.935855,995.924147
1374.061097,7105.977043,-6661.853478,689.485948
1374.061427,7105.977043,-6291.750507,1225.752797
1374.061756,7105.977043,-6883.915261,842.705048
1374.062086,6661.853478,-6587.832884,1378.971896
1374.062416,7105.977043,-6735.874072,1149.143247
1374.062745,6809.894666,-7105.977043,689.485948
1374.063075,7105.977043,-6365.771101,1072.533697
1374.063405,7550.100608,-6291.750507,919.314598
1374.063734,7402.059420,-5995.668130,1608.800546
1374.064064,7179.997637,-6439.791695,1225.752797
1374.064394,6809.894666,-6513.812290,842.705048
1374.064724,6809.894666,-6513.812290,689.485948
1374.065053,6661.853478,-6735.874072,919.314598
1374.065383,6439.791695,-6735.874072,1072.533697
1374.065713,6883.915261,-6809.894666,1072.533697
1374.066042,6513.812290,-6883.915261,1149.143247
1374.066372,6809.894666,-6587.832884,1302.362347
1374.066702,7254.018232,-6439.791695,1302.362347
1374.067031,6735.874072,-6661.853478,1072.533697
1374.067361,7105.977043,-6883.915261,766.095498
1374.067691,6809.894666,-6513.812290,612.876398
1374.068020,7031.956449,-6735.874072,919.314598
1374.068350,7179.997637,-6957.935855,1072.533697
1374.068680,7105.977043,-6661.853478,1378.971896
1374.069010,7254.018232,-6217.729913,995.924147
1374.069339,7105.977043,-6661.853478,1072.533697
1374.069669,7179.997637,-6365.771101,919.314598
1374.069999,7179.997637,-6809.894666,689.485948
1374.070328,7402.059420,-6291.750507,1072.533697
1374.070658,7476.080014,-6143.709319,1225.752797
1374.070988,7328.038826,-5921.647536,1072.533697
1374.071317,6957.935855,-5995.668130,1225.752797
1374.071647,7105.977043,-6587.832884,995.924147
1374.071977,7179.997637,-6217.729913,842.705048
1374.072306,6883.915261,-6217.729913,1302.362347
1374.072636,6661.853478,-6365.771101,1072.533697
1374.072966,6957.935855,-6513.812290,1149.143247
1374.073296,6809.894666,-7031.956449,1149.143247
1374.073625,6883.915261,-6513.812290,995.924147
1374.073955,7105.977043,-6513.812290,689.485948
1374.074285,7031.956449,-6661.853478,1455.581446
1374.074614,6883.915261,-6809.894666,995.924147
1374.074944,6735.874072,-6809.894666,842.705048
1374.075274,6735.874072,-6735.874072,919.314598
1374.075603,6957.935855,-6587.832884,995.924147
1374.075933,7105.977043,-6587.832884,1225.752797
1374.076263,6735.874072,-6143.709319,1072.533697
1374.076592,6809.894666,-6291.750507,1072.533697
1374.076922,7105.977043,-6513.812290,842.705048
1374.077252,7105.977043,-6883.915261,1302.362347
1374.077582,7254.018232,-6513.812290,1149.143247
1374.077911,7105.977043,-6365.771101,995.924147
1374.078241,7031.956449,-6661.853478,766.095498
1374.078571,6809.894666,-6587.832884,1302.362347
1374.078900,7105.977043,-6587.832884,1455.581446
1374.079230,7105.977043,-6217.729913,842.705048
1374.079560,7031.956449,-6365.771101,766.095498
1374.079889,6661.853478,-6291.750507,766.095498
1374.080219,6439.791695,-6809.894666,919.314598
1374.080549,7031.956449,-7031.956449,919.314598
1374.080878,6957.935855,-6587.832884,1149.143247
1374.081208,6883.915261,-6661.853478,919.314598
1374.081538,6957.935855,-6735.874072,1072.533697
1374.081868,7105.977043,-6957.935855,842.705048
1374.082197,6439.791695,-6883.915261,612.876398
1374.082527,6069.688724,-6291.750507,536.266849
1374.082857,7105.977043,-7105.977043,612.876398
1374.083186,7328.038826,-6809.894666,1072.533697
1374.083516,7402.059420,-6069.688724,1378.971896
1374.083846,7179.997637,-6439.791695,842.705048
1374.084175,7328.038826,-6439.791695,1072.533697
1374.084505,7105.977043,-7105.977043,995.924147
1374.084835,7550.100608,-6735.874072,842.705048
1374.085165,7105.977043,-6365.771101,1149.143247
1374.085494,7402.059420,-6217.729913,1149.143247
1374.085824,7254.018232,-6143.709319,1149.143247
1374.086154,7402.059420,-5921.647536,1455.581446
1374.086483,7328.038826,-6069.688724,76.609550
1374.086813,7105.977043,-6587.832884,1149.143247
1374.087143,6883.915261,-6587.832884,1302.362347
1374.087472,6587.832884,-6513.812290,1149.143247
1374.087802,6365.771101,-6661.853478,1762.019645
1374.088132,7031.956449,-6513.812290,1302.362347
1374.088461,6809.894666,-6439.791695,919.314598
1374.088791,6513.812290,-6661.853478,1302.362347
1374.089121,6809.894666,-6883.915261,1149.143247
1374.089451,6661.853478,-6661.853478,842.705048
1374.089780,6661.853478,-7105.977043,919.314598
1374.090110,6735.874072,-6957.935855,1149.143247
1374.090440,7179.997637,-6957.935855,842.705048
1374.090769,7476.080014,-6513.812290,1149.143247
1374.091099,7105.977043,-6587.832884,1072.533697
1374.091429,7105.977043,-6587.832884,995.924147
1374.091758,7031.956449,-6883.915261,995.924147
1374.092088,6883.915261,-6883.915261,689.485948
1374.092418,6883.915261,-6365.771101,1072.533697
1374.092747,6957.935855,-6439.791695,766.095498
1374.093077,7105.977043,-6291.750507,919.314598
1374.093407,6883.915261,-6291.750507,995.924147
1374.093737,6957.935855,-6217.729913,1225.752797
1374.094066,7105.977043,-6217.729913,995.924147
1374.094396,6883.915261,-6809.894666,1072.533697
1374.094726,6735.874072,-6809.894666,919.314598
1374.095055,6809.894666,-6883.915261,1072.533697
1374.095385,7624.121203,-7031.956449,1915.238745
1374.095715,6883.915261,-6809.894666,1072.533697
1374.096044,6661.853478,-6883.915261,842.705048
1374.096374,6439.791695,-7031.956449,842.705048
1374.096704,6439.791695,-6809.894666,1149.143247
1374.097033,6661.853478,-6513.812290,383.047749
1374.097363,6513.812290,-6587.832884,1149.143247
1374.097693,6957.935855,-6735.874072,1072.533697
1374.098023,7476.080014,-6143.709319,1225.752797
1374.098352,7179.997637,-6439.791695,1455.581446
1374.098682,7476.080014,-6365.771101,689.485948
1374.099012,7402.059420,-6513.812290,612.876398
1374.099341,7031.956449,-6809.894666,1072.533697
1374.099671,7328.038826,-6513.812290,1072.533697
1374.100001,7328.038826,-5699.585753,1608.800546
1374.100330,7476.080014,-6291.750507,1302.362347
1374.100660,7105.977043,-6365.771101,995.924147
1374.100990,6735.874072,-6439.791695,1149.143247
1374.101319,7031.956449,-6365.771101,1072.533697
1374.101649,6883.915261,-6143.709319,1072.533697
1374.101979,7105.977043,-5403.503377,1225.752797
1374.102309,7254.018232,-5329.482782,1225.752797
1374.102638,8068.244768,-5699.585753,1378.971896
1374.102968,8216.285956,-5477.523971,1455.581446
1374.103298,8068.244768,-6069.688724,919.314598
1374.103627,7328.038826,-6513.812290,1072.533697
1374.103957,6143.709319,-7624.121203,0.000000
1374.104287,5625.565159,-7920.203579,0.000000
1374.104616,6143.709319,-6883.915261,459.657299
1374.104946,7254.018232,-7328.038826,1149.143247
1374.105276,7994.224174,-6291.750507,1532.190996
1374.105606,8438.347739,-5181.441594,1455.581446
1374.105935,8438.347739,-3997.112087,1072.533697
1374.106265,8068.244768,-4959.379811,1225.752797
1374.106595,7550.100608,-4959.379811,1072.533697
1374.106924,8216.285956,-4367.215058,842.705048
1374.107254,8734.430116,-4441.235652,1378.971896
1374.107584,8808.450710,-4219.173869,1225.752797
1374.107913,8142.265362,-5921.647536,1072.533697
1374.108243,8586.388927,-5107.421000,842.705048
1374.108573,8808.450710,-5551.544565,383.047749
1374.108902,8068.244768,-5551.544565,919.314598
1374.109232,7624.121203,-5403.503377,919.314598
1374.109562,7846.182985,-5995.668130,766.095498
1374.109892,7624.121203,-5181.441594,1149.143247
1374.110221,7994.224174,-4885.359217,1302.362347
1374.110551,8808.450710,-4145.153275,1072.533697
1374.110881,8734.430116,-4441.235652,1608.800546
1374.111210,9030.512492,-4737.318029,1378.971896
1374.111540,9030.512492,-3627.009116,1072.533697
1374.111870,8956.491898,-3478.967927,1378.971896
1374.112199,9696.697840,-3627.009116,536.266849
1374.112529,9992.780217,-3182.885551,1762.019645
1374.112859,10140.821405,-3034.844362,1915.238745
1374.113188,10362.883188,-3627.009116,1072.533697
1374.113518,10066.800811,-3997.112087,1532.190996
1374.113848,9622.677246,-4219.173869,766.095498
1374.114178,9252.574275,-5255.462188,1072.533697
1374.114507,8734.430116,-5255.462188,1225.752797
1374.114837,8216.285956,-4737.318029,766.095498
1374.115167,7476.080014,-5403.503377,1072.533697
1374.115496,8142.265362,-4737.318029,1225.752797
1374.115826,8882.471304,-4515.256246,1072.533697
1374.116156,8808.450710,-3775.050304,1302.362347
1374.116485,9030.512492,-4515.256246,766.095498
1374.116815,7772.162391,-5477.523971,459.657299
1374.117145,7920.203579,-4737.318029,153.219100
1374.117474,8512.368333,-4959.379811,383.047749
1374.117804,9400.615463,-4959.379811,0.000000
1374.118134,9918.759623,-6217.729913,229.828649
1374.118464,9474.636058,-5403.503377,842.705048
1374.118793,9178.553681,-4515.256246,76.609550
1374.119123,9104.533087,-4441.235652,689.485948
1374.119453,9252.574275,-4737.318029,842.705048
1374.119782,9474.636058,-5329.482782,612.876398
1374.120112,8882.471304,-4071.132681,1608.800546
1374.120442,8882.471304,-3552.988522,1378.971896
1374.120771,9104.533087,-4145.153275,1762.019645
1374.121101,9252.574275,-3552.988522,2221.676944
1374.121431,9474.636058,-4071.132681,1838.629195
1374.121760,9326.594869,-3034.844362,1072.533697
1374.122090,8956.491898,-3478.967927,842.705048
1374.122420,8956.491898,-3997.112087,612.876398
1374.122750,9622.677246,-4219.173869,842.705048
1374.123079,9178.553681,-4663.297435,229.828649
1374.123409,9178.553681,-4145.153275,-306.438199
1374.123739,8956.491898,-5403.503377,0.000000
1374.124068,9252.574275,-5847.626942,919.314598
1374.124398,8882.471304,-5773.606348,459.657299
1374.124728,8734.430116,-5995.668130,1532.190996
1374.125057,8290.306550,-5403.503377,1532.190996
1374.125387,8068.244768,-5847.626942,1685.410096
1374.125717,7920.203579,-5403.503377,2757.943793
1374.126047,8438.347739,-4441.235652,2221.676944
1374.126376,9252.574275,-2146.597232,1225.752797
1374.126706,9252.574275,-2072.576638,1762.019645
1374.127036,10066.800811,-2294.638420,1685.410096
1374.127365,11029.068536,-1332.370696,459.657299
1374.127695,10807.006753,-1332.370696,306.438199
1374.128025,10436.903782,-1924.535449,-306.438199
1374.128354,9770.718434,-3627.009116,-153.219100
1374.128684,9696.697840,-5107.421000,76.609550
1374.129014,9030.512492,-7031.956449,229.828649
1374.129343,7920.203579,-7772.162391,536.266849
1374.129673,7254.018232,-8734.430116,842.705048
1374.130003,7105.977043,-9030.512492,919.314598
1374.130333,6809.894666,-8216.285956,1838.629195
1374.130662,6809.894666,-6439.791695,153.219100
1374.130992,7105.977043,-4737.318029,536.266849
1374.131322,8216.285956,-3034.844362,919.314598
1374.131651,9548.656652,-2886.803174,2068.457845
1374.131981,10510.924376,-1628.453072,1608.800546
1374.132311,10584.944971,-962.267725,2068.457845
1374.132640,10955.047942,-444.123565,1302.362347
1374.132970,11399.171507,-740.205942,1149.143247
1374.133300,12657.521608,-1036.288319,995.924147
1374.133629,12435.459826,-1850.514855,919.314598
1374.133959,11473.192101,-3034.844362,1149.143247
1374.134289,10066.800811,-5551.544565,842.705048
1374.134619,9030.512492,-7698.141797,1762.019645
1374.134948,7031.956449,-8068.244768,1149.143247
1374.135278,4885.359217,-9326.594869,0.000000
1374.135608,4145.153275,-9030.512492,-536.266849
1374.135937,4737.318029,-8512.368333,-459.657299
1374.136267,5921.647536,-7476.080014,76.609550
1374.136597,7550.100608,-5699.585753,766.095498
1374.136926,9030.512492,-4367.215058,1149.143247
1374.137256,9326.594869,-3256.906145,1532.190996
1374.137586,9992.780217,-2146.597232,1455.581446
1374.137915,10288.862594,0.000000,1378.971896
1374.138245,11917.315666,296.082377,995.924147
1374.138575,12879.583391,148.041188,1149.143247
1374.138905,13693.809927,-666.185348,2681.334243
1374.139234,14359.995275,-1628.453072,3447.429741
1374.139564,13027.624579,-1998.556043,2604.724693
1374.139894,10584.944971,-3627.009116,1838.629195
1374.140223,8290.306550,-5107.421000,1378.971896
1374.140553,6661.853478,-7550.100608,766.095498
1374.140883,5033.400406,-8882.471304,766.095498
1374.141212,3256.906145,-7846.182985,-306.438199
1374.141542,2812.782580,-9252.574275,-1762.019645
1374.141872,4441.235652,-7402.059420,-1225.752797
1374.142201,7105.977043,-4737.318029,76.609550
1374.142531,10732.986159,-3478.967927,76.609550
1374.142861,12065.356855,-2812.782580,1915.238745
1374.143191,11843.295072,-2516.700203,2374.896044
1374.143520,11473.192101,-2516.700203,1455.581446
1374.143850,10584.944971,-2960.823768,1608.800546
1374.144180,9400.615463,-4663.297435,919.314598
1374.144509,8438.347739,-6513.812290,995.924147
1374.144839,7698.141797,-7846.182985,1608.800546
1374.145169,8142.265362,-8512.368333,1915.238745
1374.145498,7772.162391,-6365.771101,2528.115143
1374.145828,7105.977043,-5625.565159,612.876398
1374.146158,5921.647536,-3701.029710,0.000000
1374.146487,6217.729913,-3997.112087,-306.438199
1374.146817,7254.018232,-4663.297435,842.705048
1374.147147,8142.265362,-3701.029710,995.924147
1374.147476,7772.162391,-4589.276840,919.314598
1374.147805,8882.471304,-3552.988522,459.657299
1374.148135,9622.677246,-4441.235652,383.047749
1374.148464,9918.759623,-5995.668130,1455.581446
1374.148794,9622.677246,-7179.997637,2451.505594
1374.149123,8364.327145,-7846.182985,1378.971896
1374.149452,6735.874072,-5773.606348,229.828649
1374.149782,5329.482782,-6365.771101,-459.657299
1374.150111,5847.626942,-8142.265362,229.828649
1374.150440,6439.791695,-8882.471304,1455.581446
1374.150770,6513.812290,-9252.574275,1838.629195
1374.151099,6217.729913,-6217.729913,536.266849
1374.151429,5773.606348,-4589.276840,0.000000
1374.151758,5403.503377,-6883.915261,153.219100
1374.152087,6513.812290,-8438.347739,689.485948
1374.152417,6957.935855,-7846.182985,1225.752797
1374.152746,7402.059420,-4441.235652,536.266849
1374.153076,7846.182985,-3701.029710,536.266849
1374.153405,8882.471304,-3478.967927,919.314598
1374.153734,9696.697840,-6143.709319,1608.800546
1374.154064,9474.636058,-8142.265362,2911.162892
1374.154393,8142.265362,-7031.956449,3447.429741
1374.154723,7105.977043,-4737.318029,1225.752797
1374.155052,6217.729913,-4441.235652,1532.190996
1374.155381,7105.977043,-4515.256246,1685.410096
1374.155711,7328.038826,-6809.894666,1838.629195
1374.156040,7105.977043,-5033.400406,2757.943793
1374.156370,6809.894666,-3923.091493,612.876398
1374.156699,7772.162391,-2812.782580,153.219100
1374.157028,7920.203579,-5403.503377,842.705048
1374.157358,7550.100608,-9696.697840,1838.629195
1374.157687,6069.688724,-9178.553681,1455.581446
1374.158017,5181.441594,-8142.265362,0.000000
1374.158346,5773.606348,-7846.182985,0.000000
1374.158675,6883.915261,-8882.471304,919.314598
1374.159005,7105.977043,-10807.006753,1685.410096
1374.159334,5847.626942,-9918.759623,1225.752797
1374.159663,4811.338623,-7254.018232,76.609550
1374.159993,5403.503377,-5329.482782,536.266849
1374.160322,6735.874072,-4663.297435,1149.143247
1374.160652,7105.977043,-5477.523971,2451.505594
1374.160981,6957.935855,-5477.523971,1915.238745
1374.161310,7031.956449,-4737.318029,1455.581446
1374.161640,7698.141797,-2886.803174,612.876398
1374.161969,8364.327145,-4441.235652,919.314598
1374.162299,8586.388927,-6365.771101,2068.457845
1374.162628,7994.224174,-7402.059420,1149.143247
1374.162957,6513.812290,-7105.977043,76.609550
1374.163287,6513.812290,-5847.626942,766.095498
1374.163616,7846.182985,-7031.956449,995.924147
1374.163946,8290.306550,-7994.224174,2221.676944
1374.164275,6735.874072,-7624.121203,1915.238745
1374.164604,5329.482782,-7772.162391,919.314598
1374.164934,5403.503377,-5699.585753,842.705048
1374.165263,6883.915261,-6143.709319,0.000000
1374.165593,7105.977043,-6587.832884,995.924147
1374.165922,7105.977043,-5477.523971,995.924147
1374.166251,7402.059420,-5773.606348,1302.362347
1374.166581,8956.491898,-3923.091493,536.266849
1374.166910,8734.430116,-5403.503377,995.924147
1374.167239,7994.224174,-6587.832884,919.314598
1374.167569,6291.750507,-7920.203579,229.828649
1374.167898,5255.462188,-8290.306550,0.000000
1374.168228,5773.606348,-7920.203579,306.438199
1374.168557,7031.956449,-9104.533087,1072.533697
1374.168886,7179.997637,-8660.409521,919.314598
1374.169216,6143.709319,-8068.244768,1455.581446
1374.169545,5551.544565,-6587.832884,459.657299
1374.169875,5847.626942,-4515.256246,689.485948
1374.170204,7031.956449,-5255.462188,842.705048
1374.170533,7105.977043,-5477.523971,1378.971896
1374.170863,6735.874072,-5921.647536,1149.143247
1374.171192,7105.977043,-6069.688724,842.705048
1374.171522,7624.121203,-5625.565159,842.705048
1374.171851,8364.327145,-6439.791695,1532.190996
1374.172180,8734.430116,-6735.874072,1225.752797
1374.172510,7476.080014,-7179.997637,1455.581446
1374.172839,7254.018232,-6957.935855,306.438199
1374.173169,7105.977043,-5921.647536,842.705048
1374.173498,7476.080014,-5995.668130,919.314598
1374.173827,7402.059420,-6587.832884,842.705048
1374.174157,6365.771101,-7031.956449,1838.629195
1374.174486,5995.668130,-6365.771101,612.876398
1374.174815,6217.729913,-6513.812290,995.924147
1374.175145,6587.832884,-7031.956449,1225.752797
1374.175474,6513.812290,-7105.977043,1149.143247
1374.175804,6513.812290,-5847.626942,612.876398
1374.176133,6587.832884,-4737.318029,766.095498
1374.176462,7772.162391,-4589.276840,306.438199
1374.176792,9178.553681,-5921.647536,1762.019645
1374.177121,8956.491898,-6661.853478,2145.067394
1374.177451,7105.977043,-8068.244768,1455.581446
1374.177780,5477.523971,-6957.935855,306.438199
1374.178109,4959.379811,-7179.997637,-383.047749
1374.178439,5477.523971,-9252.574275,612.876398
1374.178768,6735.874072,-7254.018232,1762.019645
1374.179098,6069.688724,-6661.853478,919.314598
1374.179427,6661.853478,-4589.276840,306.438199
1374.179756,7031.956449,-4515.256246,459.657299
1374.180086,8142.265362,-5847.626942,1072.533697
1374.180415,7476.080014,-7402.059420,1838.629195
1374.180745,6735.874072,-7031.956449,612.876398
1374.181074,6365.771101,-5995.668130,306.438199
1374.181403,7328.038826,-6661.853478,919.314598
1374.181733,8882.471304,-7624.121203,2374.896044
1374.182062,8512.368333,-7476.080014,1762.019645
1374.182391,7179.997637,-6291.750507,1378.971896
1374.182721,6513.812290,-5329.482782,766.095498
1374.183050,7179.997637,-5329.482782,1072.533697
1374.183380,6957.935855,-6291.750507,1685.410096
1374.183709,5995.668130,-7254.018232,1225.752797
1374.184038,5255.462188,-7476.080014,1149.143247
1374.184368,5181.441594,-6809.894666,612.876398
1374.184697,5551.544565,-7031.956449,1149.143247
1374.185027,6513.812290,-7476.080014,536.266849
1374.185356,7105.977043,-7476.080014,1378.971896
1374.185685,7179.997637,-7105.977043,689.485948
1374.186015,7328.038826,-5181.441594,689.485948
1374.186344,7624.121203,-4441.235652,536.266849
1374.186674,8216.285956,-6291.750507,76.609550
1374.187003,7402.059420,-7698.141797,1302.362347
1374.187332,6365.771101,-7328.038826,1072.533697
1374.187662,6217.729913,-6735.874072,229.828649
1374.187991,6809.894666,-6365.771101,766.095498
1374.188321,7328.038826,-7105.977043,1685.410096
1374.188650,7105.977043,-7105.977043,1608.800546
1374.188979,6809.894666,-6661.853478,1149.143247
1374.189309,6809.894666,-4959.379811,459.657299
1374.189638,7254.018232,-4145.153275,229.828649
1374.189967,8142.265362,-6143.709319,1302.362347
1374.190297,8142.265362,-7624.121203,2145.067394
1374.190626,7254.018232,-7698.141797,2221.676944
1374.190956,7105.977043,-6143.709319,459.657299
1374.191285,6291.750507,-5995.668130,306.438199
1374.191614,6661.853478,-7550.100608,1685.410096
1374.191944,7031.956449,-7698.141797,1072.533697
1374.192273,5625.565159,-8068.244768,689.485948
1374.192603,6217.729913,-5033.400406,0.000000
1374.192932,7624.121203,-5181.441594,536.266849
1374.193261,8438.347739,-6143.709319,1532.190996
1374.193591,8512.368333,-6143.709319,1838.629195
1374.193920,8290.306550,-5699.585753,1762.019645
1374.194250,7846.182985,-4959.379811,1608.800546
1374.194579,7254.018232,-5995.668130,612.876398
1374.194908,7402.059420,-6587.832884,1532.190996
1374.195238,6809.894666,-7105.977043,459.657299
1374.195567,6291.750507,-6735.874072,76.609550
1374.195897,6291.750507,-5625.565159,612.876398
1374.196226,7994.224174,-5107.421000,612.876398
1374.196555,9104.533087,-6069.688724,1608.800546
1374.196885,7105.977043,-7994.224174,1608.800546
1374.197214,4737.318029,-7846.182985,383.047749
1374.197544,3701.029710,-7179.997637,-1149.143247
1374.197873,4737.318029,-8586.388927,0.000000
1374.198202,6365.771101,-8142.265362,1302.362347
1374.198532,7402.059420,-8216.285956,2145.067394
1374.198861,7772.162391,-6957.935855,1991.848295
1374.199190,7698.141797,-5107.421000,1608.800546
1374.199520,8734.430116,-5033.400406,1302.362347
1374.199849,8512.368333,-5255.462188,689.485948
1374.200179,6735.874072,-6883.915261,995.924147
1374.200508,5107.421000,-7254.018232,153.219100
1374.200837,5107.421000,-6809.894666,153.219100
1374.201167,6661.853478,-6809.894666,459.657299
1374.201496,7402.059420,-7846.182985,1685.410096
1374.201826,7031.956449,-8142.265362,1532.190996
1374.202155,5625.565159,-7476.080014,1149.143247
1374.202484,5773.606348,-6217.729913,995.924147
1374.202814,7328.038826,-4219.173869,1225.752797
1374.203143,8734.430116,-5329.482782,1762.019645
1374.203473,7994.224174,-6439.791695,2451.505594
1374.203802,6957.935855,-5477.523971,1915.238745
1374.204131,7031.956449,-5107.421000,995.924147
1374.204461,7105.977043,-5329.482782,1072.533697
1374.204790,7254.018232,-7624.121203,1838.629195
1374.205120,7105.977043,-7698.141797,1149.143247
1374.205449,5625.565159,-6365.771101,536.266849
1374.205778,6217.729913,-4737.318029,76.609550
1374.206108,8068.244768,-5995.668130,995.924147
1374.206437,8438.347739,-7031.956449,1991.848295
1374.206766,7105.977043,-7920.203579,1302.362347
1374.207096,5033.400406,-7624.121203,612.876398
1374.207425,4515.256246,-7105.977043,0.000000
1374.207755,6069.688724,-7402.059420,766.095498
1374.208084,7179.997637,-7698.141797,1838.629195
1374.208413,7328.038826,-7179.997637,1608.800546
1374.208743,7031.956449,-5995.668130,383.047749
1374.209072,7254.018232,-4145.153275,995.924147
1374.209402,8142.265362,-4589.276840,766.095498
1374.209731,9104.533087,-6439.791695,1455.581446
1374.210060,8068.244768,-7105.977043,1838.629195
1374.210390,6439.791695,-7772.162391,459.657299
1374.210719,5551.544565,-7328.038826,-612.876398
1374.211049,5699.585753,-7920.203579,306.438199
1374.211378,7105.977043,-8512.368333,459.657299
1374.211707,7105.977043,-7920.203579,612.876398
1374.212037,6365.771101,-6439.791695,995.924147
1374.212366,6661.853478,-5625.565159,536.266849
1374.212696,7179.997637,-4663.297435,919.314598
1374.213025,7698.141797,-5477.523971,995.924147
1374.213354,7179.997637,-6291.750507,1685.410096
1374.213684,6809.894666,-6217.729913,1225.752797
1374.214013,7550.100608,-6661.853478,1378.971896
1374.214342,8438.347739,-5773.606348,1532.190996
1374.214672,8660.409521,-7105.977043,2374.896044
1374.215001,7624.121203,-7031.956449,1608.800546
1374.215331,6365.771101,-5477.523971,612.876398
1374.215660,6365.771101,-4959.379811,153.219100
1374.215989,7179.997637,-5773.606348,229.828649
1374.216319,7031.956449,-7550.100608,919.314598
1374.216648,6217.729913,-9104.533087,919.314598
1374.216978,4885.359217,-8586.388927,229.828649
1374.217307,4959.379811,-7328.038826,-229.828649
1374.217636,5773.606348,-7846.182985,689.485948
1374.217966,6883.915261,-7772.162391,1915.238745
1374.218295,7550.100608,-6735.874072,1225.752797
1374.218625,7402.059420,-5551.544565,1455.581446
1374.218954,8290.306550,-4293.194464,612.876398
1374.219283,8586.388927,-4367.215058,1225.752797
1374.219613,8882.471304,-5699.585753,1762.019645
1374.219942,7550.100608,-6809.894666,1762.019645
1374.220272,6513.812290,-6291.750507,1072.533697
1374.220601,6439.791695,-6365.771101,766.095498
1374.220930,7105.977043,-6809.894666,1532.190996
1374.221260,7772.162391,-7994.224174,1685.410096
1374.221589,6587.832884,-6883.915261,1149.143247
1374.221918,4737.318029,-5921.647536,0.000000
1374.222248,5329.482782,-5921.647536,-306.438199
1374.222577,7254.018232,-5551.544565,1072.533697
1374.222907,7994.224174,-7328.038826,2298.286494
1374.223236,7846.182985,-7105.977043,2374.896044
1374.223565,6439.791695,-6661.853478,1608.800546
1374.223895,6291.750507,-6069.688724,1225.752797
1374.224224,6809.894666,-6365.771101,1072.533697
1374.224554,7328.038826,-6883.915261,1302.362347
1374.224883,7402.059420,-6291.750507,1991.848295
1374.225212,7254.018232,-5329.482782,919.314598
1374.225542,7402.059420,-4219.173869,1225.752797
1374.225871,8364.327145,-4663.297435,995.924147
1374.226201,8586.388927,-6809.894666,2374.896044
1374.226530,7254.018232,-6883.915261,1915.238745
1374.226859,5699.585753,-7031.956449,76.609550
1374.227189,5033.400406,-6217.729913,842.705048
1374.227518,6069.688724,-7179.997637,995.924147
1374.227848,7328.038826,-7772.162391,1532.190996
1374.228177,7179.997637,-7105.977043,1838.629195
1374.228506,6291.750507,-7254.018232,766.095498
1374.228836,6365.771101,-5477.523971,0.000000
1374.229165,6735.874072,-5921.647536,1072.533697
1374.229495,7698.141797,-7846.182985,1378.971896
1374.229824,7031.956449,-8364.327145,1685.410096
1374.230153,5773.606348,-7402.059420,1225.752797
1374.230483,5255.462188,-6957.935855,0.000000
1374.230812,6587.832884,-7550.100608,612.876398
1374.231141,7328.038826,-8438.347739,1072.533697
1374.231471,6957.935855,-7698.141797,995.924147
1374.231800,5847.626942,-5847.626942,689.485948
1374.232130,7105.977043,-5551.544565,383.047749
1374.232459,8068.244768,-5403.503377,919.314598
1374.232788,7994.224174,-6217.729913,2068.457845
1374.233118,7772.162391,-6661.853478,1838.629195
1374.233447,6883.915261,-6439.791695,1225.752797
1374.233777,6513.812290,-5699.585753,536.266849
1374.234106,6513.812290,-6883.915261,842.705048
1374.234435,7105.977043,-7402.059420,1225.752797
1374.234765,7179.997637,-7772.162391,1915.238745
1374.235094,6291.750507,-6365.771101,1149.143247
1374.235424,6809.894666,-4959.379811,766.095498
1374.235753,7994.224174,-5329.482782,1455.581446
1374.236082,8068.244768,-7179.997637,1762.019645
1374.236412,7031.956449,-7105.977043,1838.629195
1374.236741,5625.565159,-6883.915261,459.657299
1374.237071,5625.565159,-6661.853478,0.000000
1374.237400,6513.812290,-6513.812290,1072.533697
1374.237729,7105.977043,-7476.080014,1915.238745
1374.238059,7402.059420,-6735.874072,1915.238745
1374.238388,6735.874072,-4737.318029,919.314598
1374.238717,6439.791695,-4441.235652,459.657299
1374.239047,7179.997637,-4811.338623,536.266849
1374.239376,7624.121203,-6069.688724,1991.848295
1374.239706,7105.977043,-6957.935855,1685.410096
1374.240035,6661.853478,-6883.915261,1378.971896
1374.240364,7402.059420,-5255.462188,1225.752797
1374.240694,8364.327145,-6439.791695,1532.190996
1374.241023,8956.491898,-6957.935855,2451.505594
1374.241353,7179.997637,-6439.791695,1685.410096
1374.241682,6439.791695,-4885.359217,383.047749
1374.242011,6809.894666,-4589.276840,76.609550
1374.242341,6809.894666,-5921.647536,1225.752797
1374.242670,6735.874072,-8142.265362,1685.410096
1374.243000,5551.544565,-8956.491898,1455.581446
1374.243329,4737.318029,-7920.203579,0.000000
1374.243658,4219.173869,-7476.080014,-612.876398
1374.243988,5181.441594,-8956.491898,383.047749
1374.244317,6661.853478,-8956.491898,766.095498
1374.244647,7105.977043,-7920.203579,766.095498
1374.244976,6735.874072,-6661.853478,766.095498
1374.245305,8438.347739,-4811.338623,76.609550
1374.245635,9030.512492,-5403.503377,1225.752797
1374.245964,8364.327145,-6587.832884,1455.581446
1374.246293,7328.038826,-6735.874072,1378.971896
1374.246623,7105.977043,-6069.688724,689.485948
1374.246952,6735.874072,-5847.626942,536.266849
1374.247282,7402.059420,-6587.832884,1149.143247
1374.247611,7254.018232,-7031.956449,1302.362347
1374.247940,5995.668130,-7031.956449,689.485948
1374.248270,5847.626942,-5773.606348,689.485948
1374.248599,6587.832884,-4515.256246,383.047749
1374.248929,8068.244768,-6217.729913,842.705048
1374.249261,7772.162391,-7698.141797,1762.019645
1374.249590,6217.729913,-7994.224174,1378.971896
1374.249919,5551.544565,-7031.956449,306.438199
1374.250248,6217.729913,-6883.915261,1149.143247
1374.250577,7105.977043,-7254.018232,1378.971896
1374.250907,7550.100608,-7254.018232,1608.800546
1374.251236,6513.812290,-6217.729913,1149.143247
1374.251565,7105.977043,-5625.565159,306.438199
1374.251894,7402.059420,-4663.297435,459.657299
1374.252223,7920.203579,-4959.379811,995.924147
1374.252552,8068.244768,-6217.729913,1762.019645
1374.252881,6883.915261,-6291.750507,1149.143247
1374.253211,6735.874072,-6291.750507,383.047749
1374.253540,7105.977043,-6143.709319,536.266849
1374.253869,7402.059420,-6587.832884,1532.190996
1374.254198,7105.977043,-7698.141797,1378.971896
1374.254527,6957.935855,-6143.709319,1532.190996
1374.254856,6809.894666,-6513.812290,919.314598
1374.255186,7624.121203,-5625.565159,1378.971896
1374.255515,7846.182985,-6143.709319,1685.410096
1374.255844,7550.100608,-7105.977043,2068.457845
1374.256173,5921.647536,-6587.832884,536.266849
1374.256502,4959.379811,-7105.977043,536.266849
1374.256831,5921.647536,-7031.956449,842.705048
1374.257161,7031.956449,-7550.100608,1225.752797
1374.257490,7105.977043,-7402.059420,2298.286494
1374.257819,6513.812290,-7031.956449,1455.581446
1374.258148,6143.709319,-5551.544565,0.000000
1374.258477,6735.874072,-4811.338623,0.000000
1374.258806,7772.162391,-5921.647536,766.095498
1374.259136,8142.265362,-7105.977043,1838.629195
1374.259465,6883.915261,-7105.977043,2068.457845
1374.259794,6143.709319,-6069.688724,383.047749
1374.260123,6809.894666,-6069.688724,536.266849
1374.260452,8068.244768,-7105.977043,1532.190996
1374.260781,8438.347739,-7402.059420,2145.067394
1374.261110,7698.141797,-6217.729913,1762.019645
1374.261440,6957.935855,-5403.503377,1378.971896
1374.261769,7328.038826,-4441.235652,153.219100
1374.262098,8290.306550,-5329.482782,1455.581446
1374.262427,7402.059420,-6957.935855,1915.238745
1374.262756,6217.729913,-7550.100608,1532.190996
1374.263085,5551.544565,-7402.059420,306.438199
1374.263415,5329.482782,-7031.956449,0.000000
1374.263744,5625.565159,-8438.347739,919.314598
1374.264073,6661.853478,-8512.368333,1532.190996
1374.264402,6439.791695,-7550.100608,689.485948
1374.264731,5921.647536,-7105.977043,689.485948
1374.265060,7994.224174,-5403.503377,842.705048
1374.265390,8586.388927,-5921.647536,1149.143247
1374.265719,7624.121203,-6957.935855,1838.629195
1374.266048,6809.894666,-6513.812290,1225.752797
1374.266377,6513.812290,-6809.894666,689.485948
1374.266706,7105.977043,-5477.523971,612.876398
1374.267035,7624.121203,-6735.874072,1608.800546
1374.267365,7846.182985,-7105.977043,1915.238745
1374.267694,6809.894666,-5551.544565,612.876398
1374.268023,5847.626942,-5329.482782,0.000000
1374.268352,6661.853478,-4515.256246,383.047749
1374.268681,8290.306550,-5921.647536,1455.581446
1374.269010,7994.224174,-7920.203579,1915.238745
1374.269339,6587.832884,-7476.080014,1991.848295
1374.269669,6069.688724,-6809.894666,306.438199
1374.269998,5699.585753,-6661.853478,383.047749
1374.270327,5921.647536,-8364.327145,612.876398
1374.270656,6513.812290,-7402.059420,1608.800546
1374.270985,6735.874072,-6957.935855,995.924147
1374.271314,7179.997637,-5477.523971,306.438199
1374.271644,8068.244768,-3701.029710,1225.752797
1374.271973,8882.471304,-5995.668130,1762.019645
1374.272302,8512.368333,-5625.565159,2221.676944
1374.272631,6587.832884,-5847.626942,1838.629195
1374.272960,5403.503377,-5699.585753,0.000000
1374.273289,6217.729913,-5403.503377,76.609550
1374.273619,7698.141797,-8216.285956,1838.629195
1374.273948,8290.306550,-6883.915261,2911.162892
1374.274277,7772.162391,-7105.977043,1762.019645
1374.274606,7328.038826,-4589.276840,536.266849
1374.274935,7254.018232,-3849.070898,612.876398
1374.275264,7105.977043,-6957.935855,1149.143247
1374.275594,6661.853478,-7179.997637,2068.457845
1374.275923,5625.565159,-7550.100608,459.657299
1374.276252,5329.482782,-7179.997637,0.000000
1374.276581,6143.709319,-7254.018232,536.266849
1374.276910,6957.935855,-9844.739029,1532.190996
1374.277239,7031.956449,-7846.182985,1225.752797
1374.277568,6365.771101,-7402.059420,459.657299
1374.277898,6439.791695,-5699.585753,383.047749
1374.278227,7476.080014,-5107.421000,459.657299
1374.278556,7846.182985,-5403.503377,1302.362347
1374.278885,7476.080014,-6587.832884,1532.190996
1374.279214,6439.791695,-7031.956449,842.705048
1374.279543,6069.688724,-5847.626942,536.266849
1374.279873,6809.894666,-5995.668130,842.705048
1374.280202,7476.080014,-7328.038826,1685.410096
1374.280531,7698.141797,-7624.121203,1991.848295
1374.280860,6217.729913,-6957.935855,842.705048
1374.281189,6661.853478,-5921.647536,383.047749
1374.281518,7402.059420,-5255.462188,612.876398
1374.281848,8216.285956,-6291.750507,1378.971896
1374.282177,7994.224174,-7105.977043,1838.629195
1374.282506,6735.874072,-7624.121203,842.705048
1374.282835,5699.585753,-7772.162391,229.828649
1374.283164,5921.647536,-6513.812290,689.485948
1374.283493,6883.915261,-7179.997637,995.924147
1374.283822,7105.977043,-7105.977043,689.485948
1374.284152,6291.750507,-7105.977043,1455.581446
1374.284481,7105.977043,-5329.482782,842.705048
1374.284810,8290.306550,-4737.318029,0.000000
1374.285139,8290.306550,-5255.462188,1455.581446
1374.285468,7179.997637,-6069.688724,1225.752797
1374.285797,6513.812290,-6883.915261,1225.752797
1374.286127,6513.812290,-6217.729913,1225.752797
1374.286456,7920.203579,-6217.729913,1225.752797
1374.286785,8438.347739,-5921.647536,2145.067394
1374.287114,7624.121203,-6661.853478,2068.457845
1374.287443,6809.894666,-5551.544565,536.266849
1374.287772,5847.626942,-4219.173869,995.924147
1374.288102,6809.894666,-4959.379811,229.828649
1374.288431,7254.018232,-7105.977043,1378.971896
1374.288760,6809.894666,-6957.935855,2068.457845
1374.289089,5847.626942,-7328.038826,383.047749
1374.289418,5625.565159,-7105.977043,383.047749
1374.289747,6217.729913,-6809.894666,612.876398
1374.290077,7624.121203,-8364.327145,1532.190996
1374.290406,8068.244768,-7328.038826,1762.019645
1374.290735,7624.121203,-5995.668130,1685.410096
1374.291064,7179.997637,-5625.565159,536.266849
1374.291393,7698.141797,-5107.421000,995.924147
1374.291722,7994.224174,-6217.729913,842.705048
1374.292051,7105.977043,-7698.141797,1455.581446
1374.292381,6143.709319,-6587.832884,1072.533697
1374.292710,5847.626942,-5995.668130,0.000000
1374.293039,6439.791695,-6439.791695,919.314598
1374.293368,7328.038826,-7698.141797,1915.238745
1374.293697,7031.956449,-6291.750507,1225.752797
1374.294026,6513.812290,-6513.812290,383.047749
1374.294356,6365.771101,-5773.606348,612.876398
1374.294685,8068.244768,-5255.462188,76.609550
1374.295014,7550.100608,-7476.080014,1378.971896
1374.295343,7105.977043,-7476.080014,1762.019645
1374.295672,5773.606348,-8438.347739,689.485948
1374.296001,6069.688724,-6661.853478,919.314598
1374.296331,6587.832884,-7476.080014,459.657299
1374.296660,7624.121203,-7772.162391,1685.410096
1374.296989,7550.100608,-7476.080014,1838.629195
1374.297318,6439.791695,-7031.956449,459.657299
1374.297647,6587.832884,-4737.318029,0.000000
1374.297976,7254.018232,-5181.441594,306.438199
1374.298306,7772.162391,-6513.812290,1685.410096
1374.298635,6883.915261,-6957.935855,1149.143247
1374.298964,6439.791695,-7476.080014,1149.143247
1374.299293,7105.977043,-5921.647536,536.266849
1374.299622,7254.018232,-6217.729913,1149.143247
1374.299951,7624.121203,-6809.894666,2987.772442
1374.300280,7105.977043,-6365.771101,1455.581446
1374.300610,6291.750507,-5033.400406,919.314598
1374.300939,7105.977043,-4145.153275,536.266849
1374.301268,8808.450710,-4589.276840,919.314598
1374.301597,8808.450710,-5921.647536,2374.896044
1374.301926,7624.121203,-6365.771101,1685.410096
1374.302255,5847.626942,-6883.915261,306.438199
1374.302585,4959.379811,-7179.997637,229.828649
1374.302914,5921.647536,-7846.182985,229.828649
1374.303243,6735.874072,-8364.327145,1685.410096
1374.303572,6809.894666,-7179.997637,1149.143247
1374.303901,6587.832884,-7031.956449,689.485948
1374.304230,7476.080014,-4959.379811,612.876398
1374.304560,8142.265362,-5033.400406,842.705048
1374.304889,8216.285956,-6143.709319,1225.752797
1374.305218,7105.977043,-6439.791695,995.924147
1374.305547,6069.688724,-6883.915261,612.876398
1374.305876,6587.832884,-6217.729913,1149.143247
1374.306205,7105.977043,-6217.729913,1225.752797
1374.306535,7994.224174,-6439.791695,1225.752797
1374.306864,7105.977043,-6735.874072,1225.752797
1374.307193,6365.771101,-6513.812290,306.438199
1374.307522,6809.894666,-5625.565159,1149.143247
1374.307851,8068.244768,-6439.791695,1915.238745
1374.308180,8512.368333,-6661.853478,2145.067394
1374.308509,6883.915261,-7846.182985,1302.362347
1374.308839,5255.462188,-7698.141797,995.924147
1374.309168,5551.544565,-7105.977043,-229.828649
1374.309497,6439.791695,-7994.224174,612.876398
1374.309826,6661.853478,-7624.121203,1762.019645
1374.310155,6365.771101,-7550.100608,1225.752797
1374.310484,6143.709319,-5699.585753,919.314598
1374.310814,6587.832884,-4515.256246,306.438199
1374.311143,8290.306550,-5921.647536,1149.143247
1374.311472,9030.512492,-6291.750507,2298.286494
1374.311801,7328.038826,-6883.915261,1685.410096
1374.312130,5921.647536,-6957.935855,766.095498
1374.312459,5995.668130,-6735.874072,229.828649
1374.312789,6883.915261,-7846.182985,842.705048
1374.313118,7179.997637,-8068.244768,1685.410096
1374.313447,6513.812290,-7254.018232,842.705048
1374.313776,6365.771101,-6069.688724,766.095498
1374.314105,6957.935855,-5181.441594,306.438199
1374.314434,7846.182985,-5699.585753,1608.800546
1374.314764,8068.244768,-6587.832884,1915.238745
1374.315093,7105.977043,-6957.935855,1991.848295
1374.315422,5477.523971,-6365.771101,459.657299
1374.315751,5255.462188,-6587.832884,306.438199
1374.316080,6217.729913,-7920.203579,1608.800546
1374.316409,6809.894666,-7994.224174,1685.410096
1374.316738,5699.585753,-7550.100608,536.266849
1374.317068,5403.503377,-6217.729913,153.219100
1374.317397,6735.874072,-6439.791695,153.219100
1374.317726,7772.162391,-6809.894666,1149.143247
1374.318055,7698.141797,-6661.853478,2451.505594
1374.318384,7328.038826,-6587.832884,1149.143247
1374.318713,7105.977043,-6069.688724,459.657299
1374.319043,7105.977043,-6217.729913,1072.533697
1374.319372,7772.162391,-6513.812290,1225.752797
1374.319701,8216.285956,-5921.647536,1378.971896
1374.320030,7328.038826,-5551.544565,1149.143247
1374.320359,6587.832884,-4885.359217,842.705048
1374.320688,8216.285956,-4071.132681,842.705048
1374.321018,8956.491898,-5255.462188,1838.629195
1374.321347,8734.430116,-6365.771101,2145.067394
1374.321676,7179.997637,-6365.771101,1532.190996
1374.322005,5921.647536,-6217.729913,229.828649
1374.322334,5625.565159,-7105.977043,153.219100
1374.322663,6587.832884,-7254.018232,1532.190996
1374.322992,7031.956449,-7772.162391,1072.533697
1374.323322,6365.771101,-6809.894666,995.924147
1374.323651,6439.791695,-5921.647536,459.657299
1374.323980,7550.100608,-5329.482782,-383.047749
1374.324309,7550.100608,-6143.709319,919.314598
1374.324638,7328.038826,-7254.018232,1149.143247
1374.324967,6809.894666,-6809.894666,459.657299
1374.325297,5921.647536,-6883.915261,612.876398
1374.325626,6735.874072,-7402.059420,689.485948
1374.325955,7402.059420,-7402.059420,1302.362347
1374.326284,7328.038826,-8068.244768,1302.362347
1374.326613,6143.709319,-7328.038826,919.314598
1374.326942,6217.729913,-5551.544565,0.000000
1374.327272,7179.997637,-4663.297435,229.828649
1374.327601,8142.265362,-6069.688724,1149.143247
1374.327930,7772.162391,-6513.812290,1608.800546
1374.328259,6735.874072,-6735.874072,1072.533697
1374.328588,6069.688724,-7550.100608,842.705048
1374.328917,6661.853478,-6735.874072,1608.800546
1374.329247,7254.018232,-7105.977043,1378.971896
1374.329576,7254.018232,-7772.162391,1608.800546
1374.329905,6809.894666,-7179.997637,1608.800546
1374.330234,6735.874072,-6957.935855,612.876398
1374.330563,7105.977043,-5329.482782,536.266849
1374.330892,7698.141797,-6439.791695,1455.581446
1374.331221,7772.162391,-6883.915261,1302.362347
1374.331551,6439.791695,-7328.038826,1302.362347
1374.331880,5625.565159,-7105.977043,842.705048
1374.332209,6217.729913,-6957.935855,229.828649
1374.332538,6809.894666,-6365.771101,766.095498
1374.332867,6957.935855,-7179.997637,1072.533697
1374.333196,6439.791695,-6143.709319,459.657299
1374.333526,6291.750507,-5921.647536,306.438199
1374.333855,7105.977043,-5995.668130,842.705048
1374.334184,7994.224174,-5773.606348,1455.581446
1374.334513,7328.038826,-6735.874072,2068.457845
1374.334842,6883.915261,-6365.771101,1302.362347
1374.335171,5995.668130,-6291.750507,689.485948
1374.335501,6661.853478,-5921.647536,1302.362347
1374.335830,7624.121203,-7105.977043,1455.581446
1374.336159,7179.997637,-7476.080014,1762.019645
1374.336488,6365.771101,-5107.421000,1225.752797
1374.336817,5995.668130,-5329.482782,766.095498
1374.337146,7105.977043,-4959.379811,689.485948
1374.337476,8216.285956,-5477.523971,1225.752797
1374.337805,8216.285956,-6587.832884,1378.971896
1374.338134,7105.977043,-6439.791695,1838.629195
1374.338463,6217.729913,-7105.977043,919.314598
1374.338792,6217.729913,-6291.750507,536.266849
1374.339121,6809.894666,-7105.977043,1455.581446
1374.339450,7254.018232,-7772.162391,1915.238745
1374.339780,7328.038826,-6661.853478,1532.190996
1374.340109,6513.812290,-5921.647536,766.095498
1374.340438,7476.080014,-5033.400406,766.095498
1374.340767,8364.327145,-6217.729913,1915.238745
1374.341096,7772.162391,-7402.059420,1685.410096
1374.341425,6069.688724,-7105.977043,842.705048
1374.341755,4811.338623,-6661.853478,76.609550
1374.342084,5773.606348,-6217.729913,76.609550
1374.342413,6513.812290,-7254.018232,919.314598
1374.342742,7179.997637,-7994.224174,1838.629195
1374.343071,7624.121203,-7624.121203,1838.629195
1374.343400,7698.141797,-5551.544565,842.705048
1374.343730,8068.244768,-4663.297435,536.266849
1374.344059,7994.224174,-5921.647536,1225.752797
1374.344388,8512.368333,-6439.791695,2145.067394
1374.344717,7402.059420,-6735.874072,1072.533697
1374.345046,6365.771101,-6809.894666,536.266849
1374.345375,6513.812290,-6661.853478,612.876398
1374.345705,7624.121203,-7179.997637,1608.800546
1374.346034,6957.935855,-7476.080014,1225.752797
1374.346363,5403.503377,-7105.977043,1378.971896
1374.346692,5403.503377,-5699.585753,153.219100
1374.347021,6217.729913,-4737.318029,0.000000
1374.347350,7105.977043,-6513.812290,1762.019645
1374.347679,7550.100608,-7031.956449,1455.581446
1374.348009,6735.874072,-7772.162391,1302.362347
1374.348338,5551.544565,-7772.162391,1072.533697
1374.348667,6809.894666,-7402.059420,1072.533697
1374.348996,7328.038826,-7328.038826,1685.410096
1374.349325,7772.162391,-7476.080014,1762.019645
1374.349654,7105.977043,-6957.935855,1072.533697
1374.349984,7105.977043,-4737.318029,536.266849
1374.350313,7624.121203,-5329.482782,612.876398
1374.350642,8216.285956,-6439.791695,1225.752797
1374.350971,7105.977043,-5921.647536,1455.581446
1374.351300,5847.626942,-7254.018232,0.000000
1374.351629,5699.585753,-6661.853478,76.609550
1374.351959,6587.832884,-6587.832884,995.924147
1374.352288,7179.997637,-7328.038826,1149.143247
1374.352617,7179.997637,-6735.874072,2298.286494
1374.352946,7105.977043,-6661.853478,995.924147
1374.353275,7105.977043,-5255.462188,689.485948
1374.353605,8068.244768,-4441.235652,995.924147
1374.353934,9104.533087,-5773.606348,1608.800546
1374.354263,7920.203579,-6513.812290,1991.848295
1374.354592,6587.832884,-6883.915261,1455.581446
1374.354921,5625.565159,-7105.977043,0.000000
1374.355250,5995.668130,-6883.915261,689.485948
1374.355580,6365.771101,-8438.347739,919.314598
1374.355909,6883.915261,-7254.018232,383.047749
1374.356238,6217.729913,-6143.709319,536.266849
1374.356567,7179.997637,-4811.338623,229.828649
1374.356896,7920.203579,-4663.297435,689.485948
1374.357226,8290.306550,-5181.441594,1991.848295
1374.357555,8142.265362,-6809.894666,1762.019645
1374.357884,7105.977043,-6291.750507,995.924147
1374.358213,6513.812290,-6513.812290,536.266849
1374.358542,7031.956449,-6587.832884,842.705048
1374.358871,7846.182985,-7698.141797,1302.362347
1374.359201,7105.977043,-7846.182985,1762.019645
1374.359530,6217.729913,-6439.791695,612.876398
1374.359859,6143.709319,-6957.935855,229.828649
1374.360188,6883.915261,-5921.647536,1072.533697
1374.360517,7920.203579,-6957.935855,1455.581446
1374.360847,6735.874072,-7179.997637,1072.533697
1374.361176,4959.379811,-7402.059420,459.657299
1374.361505,5033.400406,-7328.038826,0.000000
1374.361834,6735.874072,-7476.080014,842.705048
1374.362163,7476.080014,-7846.182985,1455.581446
1374.362492,7402.059420,-6957.935855,1608.800546
1374.362822,7402.059420,-6217.729913,689.485948
1374.363151,7550.100608,-4737.318029,229.828649
1374.363480,8808.450710,-4811.338623,919.314598
1374.363809,9326.594869,-6143.709319,1532.190996
1374.364138,8290.306550,-7105.977043,1991.848295
1374.364468,6661.853478,-6143.709319,229.828649
1374.364797,5403.503377,-8068.244768,766.095498
1374.365126,5995.668130,-7402.059420,459.657299
1374.365455,6587.832884,-7846.182985,919.314598
1374.365784,6365.771101,-7402.059420,1838.629195
1374.366113,5773.606348,-7105.977043,919.314598
1374.366443,7031.956449,-5107.421000,0.000000
1374.366772,6883.915261,-4441.235652,842.705048
1374.367101,7105.977043,-6735.874072,1072.533697
1374.367430,7550.100608,-6513.812290,2298.286494
1374.367759,6661.853478,-7920.203579,1608.800546
1374.368089,6217.729913,-7031.956449,459.657299
1374.368418,5847.626942,-6735.874072,1072.533697
1374.368747,6957.935855,-7772.162391,1225.752797
1374.369076,7476.080014,-7402.059420,1838.629195
1374.369405,7105.977043,-5699.585753,1378.971896
1374.369734,7920.203579,-4737.318029,459.657299
1374.370064,8882.471304,-4145.153275,1149.143247
1374.370393,8438.347739,-5625.565159,2068.457845
1374.370722,7402.059420,-6365.771101,1455.581446
1374.371051,5551.544565,-5995.668130,995.924147
1374.371380,4885.359217,-5921.647536,0.000000
1374.371710,5921.647536,-7105.977043,689.485948
1374.372039,7328.038826,-7254.018232,1532.190996
1374.372368,7328.038826,-7550.100608,1532.190996
1374.372697,6735.874072,-6809.894666,919.314598
1374.373026,7105.977043,-5625.565159,842.705048
1374.373355,7994.224174,-5107.421000,919.314598
1374.373685,8364.327145,-5995.668130,2145.067394
1374.374014,7698.141797,-7254.018232,1991.848295
1374.374343,5995.668130,-8216.285956,1072.533697
1374.374672,4737.318029,-7476.080014,306.438199
1374.375001,5181.441594,-7772.162391,383.047749
1374.375331,5403.503377,-7994.224174,1225.752797
1374.375660,5847.626942,-7550.100608,383.047749
1374.375989,5477.523971,-6735.874072,76.609550
1374.376318,6143.709319,-4737.318029,0.000000
1374.376647,7550.100608,-5329.482782,995.924147
1374.376976,9104.533087,-5625.565159,1302.362347
1374.377306,7550.100608,-7624.121203,1532.190996
1374.377635,6735.874072,-6587.832884,689.485948
1374.377964,6661.853478,-6809.894666,229.828649
1374.378293,7624.121203,-7031.956449,995.924147
1374.378622,8364.327145,-6883.915261,2221.676944
1374.378952,8364.327145,-7328.038826,2374.896044
1374.379281,7328.038826,-6069.688724,766.095498
1374.379610,6661.853478,-5033.400406,612.876398
1374.379939,6513.812290,-6069.688724,842.705048
1374.380268,6365.771101,-6809.894666,766.095498
1374.380597,5033.400406,-7698.141797,995.924147
1374.380927,4885.359217,-7550.100608,842.705048
1374.381256,5625.565159,-6883.915261,383.047749
1374.381585,6957.935855,-7179.997637,766.095498
1374.381914,7328.038826,-7476.080014,1915.238745
1374.382243,7402.059420,-6143.709319,1302.362347
1374.382573,7254.018232,-5329.482782,919.314598
1374.382902,7846.182985,-4367.215058,536.266849
1374.383231,8734.430116,-4885.359217,1915.238745
1374.383560,9474.636058,-6217.729913,2298.286494
1374.383889,8068.244768,-6809.894666,2374.896044
1374.384218,6809.894666,-6439.791695,1072.533697
1374.384548,6439.791695,-5921.647536,0.000000
1374.384877,6513.812290,-6587.832884,536.266849
1374.385206,7031.956449,-6883.915261,842.705048
1374.385535,6291.750507,-6217.729913,1378.971896
1374.385864,5921.647536,-5995.668130,459.657299
1374.386194,7328.038826,-5551.544565,842.705048
1374.386523,7328.038826,-5773.606348,919.314598
1374.386852,7624.121203,-6365.771101,1302.362347
1374.387181,6957.935855,-7254.018232,1302.362347
1374.387510,6439.791695,-7179.997637,919.314598
1374.387839,6291.750507,-7105.977043,689.485948
1374.388169,7402.059420,-6957.935855,1532.190996
1374.388498,7550.100608,-7179.997637,1991.848295
1374.388827,6365.771101,-6957.935855,1072.533697
1374.389156,5921.647536,-6883.915261,919.314598
1374.389485,6661.853478,-5255.462188,229.828649
1374.389815,7402.059420,-5699.585753,536.266849
1374.390144,7402.059420,-6365.771101,1608.800546
1374.390473,7031.956449,-6291.750507,919.314598
1374.390802,6587.832884,-6809.894666,689.485948
1374.391131,6439.791695,-6439.791695,1072.533697
1374.391460,7254.018232,-6661.853478,919.314598
1374.391790,7846.182985,-7328.038826,1455.581446
1374.392119,7624.121203,-7328.038826,1915.238745
1374.392448,6809.894666,-6365.771101,459.657299
1374.392777,7624.121203,-5329.482782,229.828649
1374.393106,7772.162391,-5625.565159,1378.971896
1374.393436,8068.244768,-7402.059420,1838.629195
1374.393765,7476.080014,-7994.224174,2145.067394
1374.394094,5921.647536,-7624.121203,1149.143247
1374.394423,5329.482782,-7328.038826,0.000000
1374.394752,5995.668130,-7624.121203,1378.971896
1374.395081,6439.791695,-7772.162391,1608.800546
1374.395411,6513.812290,-6809.894666,536.266849
1374.395740,5773.606348,-5847.626942,536.266849
1374.396069,6587.832884,-5107.421000,306.438199
1374.396398,7846.182985,-5255.462188,612.876398
1374.396727,8660.409521,-6291.750507,2757.943793
1374.397057,8142.265362,-6143.709319,2068.457845
1374.397386,7624.121203,-6291.750507,842.705048
1374.397715,6957.935855,-4885.359217,919.314598
1374.398044,7179.997637,-6513.812290,1685.410096
1374.398373,7920.203579,-7179.997637,1608.800546
1374.398702,6809.894666,-6291.750507,1991.848295
1374.399032,5847.626942,-6735.874072,842.705048
1374.399361,6735.874072,-6217.729913,1072.533697
1374.399690,6439.791695,-6217.729913,919.314598
1374.400019,5625.565159,-7994.224174,1225.752797
1374.400348,4589.276840,-7920.203579,995.924147
1374.400678,4663.297435,-8364.327145,-459.657299
1374.401007,5107.421000,-6883.915261,153.219100
1374.401336,7031.956449,-7328.038826,766.095498
1374.401665,8216.285956,-7328.038826,1532.190996
1374.401994,7772.162391,-5773.606348,1302.362347
1374.402323,7328.038826,-5847.626942,1302.362347
1374.402653,8068.244768,-4219.173869,1302.362347
1374.402982,9474.636058,-4515.256246,1915.238745
1374.403311,9252.574275,-5847.626942,2757.943793
1374.403640,8068.244768,-6291.750507,2221.676944
1374.403969,7105.977043,-5847.626942,1838.629195
1374.404299,6735.874072,-5107.421000,995.924147
1374.404628,6439.791695,-5995.668130,1149.143247
1374.404957,6365.771101,-6143.709319,1149.143247
1374.405286,5773.606348,-7846.182985,612.876398
1374.405615,5625.565159,-7105.977043,383.047749
1374.405944,6883.915261,-5773.606348,383.047749
1374.406274,7624.121203,-7328.038826,689.485948
1374.406603,7698.141797,-7920.203579,1608.800546
1374.406932,5551.544565,-8364.327145,536.266849
1374.407261,5033.400406,-8290.306550,0.000000
1374.407590,5921.647536,-7846.182985,0.000000
1374.407920,7402.059420,-7846.182985,842.705048
1374.408249,7476.080014,-8438.347739,1762.019645
1374.408578,7328.038826,-7402.059420,1378.971896
1374.408907,7254.018232,-5181.441594,383.047749
1374.409236,7550.100608,-4663.297435,306.438199
1374.409565,8142.265362,-5107.421000,1455.581446
1374.409895,8364.327145,-5625.565159,1532.190996
1374.410224,7328.038826,-5699.585753,842.705048
1374.410553,5921.647536,-6069.688724,612.876398
1374.410882,6661.853478,-6069.688724,459.657299
1374.411211,7624.121203,-6587.832884,1532.190996
1374.411541,7920.203579,-6735.874072,1532.190996
1374.411870,7328.038826,-6513.812290,1072.533697
1374.412199,7031.956449,-5625.565159,766.095498
1374.412528,7698.141797,-5181.441594,1072.533697
1374.412857,8808.450710,-5773.606348,1149.143247
1374.413186,7624.121203,-7624.121203,2145.067394
1374.413516,6513.812290,-7105.977043,612.876398
1374.413845,5625.565159,-6587.832884,0.000000
1374.414174,5773.606348,-7105.977043,612.876398
1374.414503,7105.977043,-7920.203579,995.924147
1374.414832,7920.203579,-6587.832884,919.314598
1374.415162,6439.791695,-6217.729913,842.705048
1374.415491,5995.668130,-5847.626942,0.000000
1374.415820,7328.038826,-5773.606348,459.657299
1374.416149,7402.059420,-6365.771101,689.485948
1374.416478,8142.265362,-7031.956449,2298.286494
1374.416807,7179.997637,-6587.832884,1608.800546
1374.417137,6957.935855,-6291.750507,383.047749
1374.417466,6513.812290,-6587.832884,995.924147
1374.417795,7476.080014,-6735.874072,1762.019645
1374.418124,7624.121203,-7031.956449,1455.581446
1374.418453,6735.874072,-6217.729913,842.705048
1374.418783,5847.626942,-5773.606348,919.314598
1374.419112,7476.080014,-4811.338623,229.828649
1374.419441,7624.121203,-7402.059420,1532.190996
1374.419770,7105.977043,-7179.997637,1838.629195
1374.420099,6291.750507,-7624.121203,919.314598
1374.420428,5699.585753,-7105.977043,536.266849
1374.420758,5255.462188,-7624.121203,612.876398
1374.421087,5477.523971,-7772.162391,153.219100
1374.421416,7105.977043,-7476.080014,1072.533697
1374.421745,7105.977043,-6661.853478,1532.190996
1374.422074,7254.018232,-5625.565159,995.924147
1374.422404,8068.244768,-4589.276840,1149.143247
1374.422733,8734.430116,-5107.421000,1072.533697
1374.423062,8290.306550,-5403.503377,1685.410096
1374.423391,7328.038826,-6513.812290,1532.190996
1374.423720,7105.977043,-5477.523971,1072.533697
1374.424049,6809.894666,-4885.359217,842.705048
1374.424379,7031.956449,-7328.038826,1455.581446
1374.424708,7254.018232,-7105.977043,1762.019645
1374.425037,6365.771101,-7105.977043,1225.752797
1374.425366,6291.750507,-6069.688724,842.705048
1374.425695,6809.894666,-6143.709319,1225.752797
1374.426025,7772.162391,-6217.729913,1762.019645
1374.426354,6809.894666,-7402.059420,1455.581446
1374.426683,5255.462188,-7698.141797,919.314598
1374.427012,4811.338623,-6809.894666,0.000000
1374.427341,5329.482782,-7624.121203,153.219100
1374.427670,6809.894666,-8216.285956,1225.752797
1374.428000,7772.162391,-7476.080014,1991.848295
1374.428329,8142.265362,-6143.709319,1149.143247
1374.428658,7402.059420,-5477.523971,766.095498
1374.428987,7105.977043,-4737.318029,229.828649
1374.429316,7550.100608,-5625.565159,306.438199
1374.429646,8216.285956,-6883.915261,1302.362347
1374.429975,7105.977043,-7105.977043,1915.238745
1374.430304,5921.647536,-6513.812290,689.485948
1374.430633,6069.688724,-6735.874072,689.485948
1374.430962,7550.100608,-7328.038826,1302.362347
1374.431291,7920.203579,-6291.750507,1838.629195
1374.431621,7624.121203,-5255.462188,1378.971896
1374.431950,7031.956449,-4515.256246,383.047749
1374.432279,8216.285956,-4219.173869,1072.533697
1374.432608,8290.306550,-5921.647536,1378.971896
1374.432937,8142.265362,-7179.997637,2604.724693
1374.433267,6365.771101,-7624.121203,995.924147
1374.433596,5033.400406,-7624.121203,229.828649
1374.433925,5329.482782,-7920.203579,-153.219100
1374.434254,5921.647536,-8290.306550,689.485948
1374.434583,6883.915261,-8882.471304,1072.533697
1374.434912,6143.709319,-7698.141797,919.314598
1374.435242,6069.688724,-5921.647536,383.047749
1374.435571,6661.853478,-4959.379811,0.000000
1374.435900,7550.100608,-5625.565159,612.876398
1374.436229,7402.059420,-6513.812290,1455.581446
1374.436558,6661.853478,-7105.977043,1149.143247
1374.436888,6809.894666,-5625.565159,842.705048
1374.437217,7698.141797,-5033.400406,1149.143247
1374.437546,8808.450710,-6217.729913,1915.238745
1374.437875,7994.224174,-6661.853478,2298.286494
1374.438204,7698.141797,-5921.647536,1378.971896
1374.438533,6957.935855,-4663.297435,536.266849
1374.438863,7550.100608,-5107.421000,919.314598
1374.439192,8364.327145,-6217.729913,1455.581446
1374.439521,7402.059420,-7550.100608,1685.410096
1374.439850,5551.544565,-7920.203579,1225.752797
1374.440179,4589.276840,-7105.977043,-306.438199
1374.440509,5773.606348,-7624.121203,689.485948
1374.440838,6513.812290,-7846.182985,1302.362347
1374.441167,7105.977043,-7550.100608,1149.143247
1374.441496,6661.853478,-6365.771101,1225.752797
1374.441825,6217.729913,-5403.503377,536.266849
1374.442154,7920.203579,-5107.421000,383.047749
1374.442484,9178.553681,-5551.544565,1838.629195
1374.442813,9252.574275,-6291.750507,1838.629195
1374.443142,7402.059420,-6957.935855,1685.410096
1374.443471,6069.688724,-6365.771101,536.266849
1374.443800,6809.894666,-7105.977043,229.828649
1374.444130,7328.038826,-7772.162391,1149.143247
1374.444459,7105.977043,-7550.100608,1455.581446
1374.444788,6291.750507,-6957.935855,612.876398
1374.445117,6661.853478,-5403.503377,536.266849
1374.445446,7624.121203,-5107.421000,766.095498
1374.445775,8290.306550,-6143.709319,2068.457845
1374.446105,7254.018232,-6069.688724,1762.019645
1374.446434,5255.462188,-5773.606348,536.266849
1374.446763,4811.338623,-6957.935855,-459.657299
1374.447092,5181.441594,-6957.935855,612.876398
1374.447421,6439.791695,-7994.224174,919.314598
1374.447751,7105.977043,-7772.162391,1302.362347
1374.448080,6735.874072,-7179.997637,1685.410096
1374.448409,7550.100608,-6291.750507,612.876398
1374.448738,7698.141797,-5625.565159,1149.143247
1374.449067,7105.977043,-6661.853478,1532.190996
1374.449396,7105.977043,-6809.894666,766.095498
1374.449726,6291.750507,-6291.750507,1378.971896
1374.450055,6809.894666,-6069.688724,995.924147
1374.450384,8290.306550,-5551.544565,1762.019645
1374.450713,8882.471304,-5773.606348,1991.848295
1374.451042,8290.306550,-5107.421000,2145.067394
1374.451371,7254.018232,-4293.194464,995.924147
1374.451700,7476.080014,-3330.926739,383.047749
1374.452029,7846.182985,-4737.318029,919.314598
1374.452358,7920.203579,-8216.285956,1838.629195
1374.452688,6661.853478,-8216.285956,842.705048
1374.453017,4145.153275,-8808.450710,0.000000
1374.453346,3256.906145,-9474.636058,-229.828649
1374.453675,4737.318029,-9326.594869,0.000000
1374.454004,7402.059420,-9326.594869,1378.971896
1374.454333,7328.038826,-8586.388927,2298.286494
1374.454662,7624.121203,-5921.647536,1455.581446
1374.454991,7105.977043,-4589.276840,612.876398
1374.455320,7772.162391,-4885.359217,1149.143247
1374.455649,8512.368333,-4959.379811,1991.848295
1374.455978,7846.182985,-5921.647536,1915.238745
1374.456308,7402.059420,-5551.544565,1378.971896
1374.456637,7476.080014,-5403.503377,766.095498
1374.456966,7920.203579,-5995.668130,1149.143247
1374.457295,8364.327145,-5921.647536,1608.800546
1374.457624,6957.935855,-7994.224174,1072.533697
1374.457953,5403.503377,-6291.750507,0.000000
1374.458282,4737.318029,-6513.812290,-229.828649
1374.458611,6513.812290,-7920.203579,1149.143247
1374.458940,7772.162391,-7846.182985,1532.190996
1374.459269,6957.935855,-8290.306550,1685.410096
1374.459598,5995.668130,-7624.121203,536.266849
1374.459928,5625.565159,-6735.874072,76.609550
1374.460257,6587.832884,-6513.812290,1072.533697
1374.460586,6883.915261,-7105.977043,842.705048
1374.460915,6883.915261,-6291.750507,689.485948
1374.461244,6661.853478,-6217.729913,766.095498
1374.461573,7476.080014,-5551.544565,842.705048
1374.461902,8808.450710,-5033.400406,689.485948
1374.462231,8290.306550,-6661.853478,1302.362347
1374.462560,7254.018232,-7031.956449,1532.190996
1374.462889,6217.729913,-7994.224174,689.485948
1374.463219,5995.668130,-7105.977043,306.438199
1374.463548,6217.729913,-5551.544565,459.657299
1374.463877,7476.080014,-7772.162391,1608.800546
1374.464206,7476.080014,-7698.141797,2068.457845
1374.464535,6365.771101,-6069.688724,1378.971896
1374.464864,6365.771101,-4071.132681,383.047749
1374.465193,7698.141797,-4589.276840,306.438199
1374.465522,8586.388927,-6217.729913,1991.848295
1374.465851,8216.285956,-6439.791695,1685.410096
1374.466180,6513.812290,-6291.750507,1685.410096
1374.466509,6217.729913,-6217.729913,0.000000
1374.466839,5773.606348,-7994.224174,459.657299
1374.467168,6291.750507,-7772.162391,1455.581446
1374.467497,6143.709319,-7624.121203,1302.362347
1374.467826,6439.791695,-7476.080014,1455.581446
1374.468155,7105.977043,-5921.647536,842.705048
1374.468484,7328.038826,-5329.482782,1685.410096
1374.468813,7402.059420,-6661.853478,1838.629195
1374.469142,6809.894666,-6587.832884,1302.362347
1374.469471,5403.503377,-6661.853478,995.924147
1374.469800,4885.359217,-6735.874072,229.828649
1374.470129,6661.853478,-6217.729913,1225.752797
1374.470459,7698.141797,-6883.915261,2068.457845
1374.470788,7624.121203,-6143.709319,1762.019645
1374.471117,7031.956449,-5255.462188,1149.143247
1374.471446,7994.224174,-5551.544565,1225.752797
1374.471775,8882.471304,-5329.482782,1838.629195
1374.472104,9326.594869,-6809.894666,2451.505594
1374.472433,7254.018232,-6661.853478,1378.971896
1374.472762,5477.523971,-7476.080014,153.219100
1374.473091,5255.462188,-8586.388927,76.609550
1374.473420,6587.832884,-7846.182985,919.314598
1374.473750,6957.935855,-8882.471304,1302.362347
1374.474079,6069.688724,-8290.306550,995.924147
1374.474408,4959.379811,-6883.915261,0.000000
1374.474737,6069.688724,-5773.606348,0.000000
1374.475066,7328.038826,-5255.462188,76.609550
1374.475395,7550.100608,-5551.544565,612.876398
1374.475724,7624.121203,-5921.647536,1225.752797
1374.476053,7994.224174,-6291.750507,1149.143247
1374.476382,8660.409521,-5255.462188,1532.190996
1374.476711,8808.450710,-5995.668130,1838.629195
1374.477040,8734.430116,-6513.812290,2298.286494
1374.477370,7105.977043,-6291.750507,1302.362347
1374.477699,5773.606348,-5699.585753,0.000000
1374.478028,6217.729913,-5181.441594,0.000000
1374.478357,8216.285956,-5551.544565,1072.533697
1374.478686,8438.347739,-7402.059420,1915.238745
1374.479015,6883.915261,-7179.997637,1762.019645
1374.479344,5625.565159,-7402.059420,612.876398
1374.479673,5699.585753,-6143.709319,536.266849
1374.480002,6661.853478,-7254.018232,919.314598
1374.480331,6661.853478,-7328.038826,1225.752797
1374.480660,5403.503377,-6291.750507,0.000000
1374.480990,6143.709319,-5625.565159,0.000000
1374.481319,7772.162391,-5625.565159,612.876398
1374.481648,8734.430116,-5995.668130,1378.971896
1374.481977,8290.306550,-6883.915261,2221.676944
1374.482306,7105.977043,-7328.038826,1302.362347
1374.482635,5773.606348,-8216.285956,689.485948
1374.482964,5995.668130,-6291.750507,1532.190996
1374.483293,7254.018232,-7105.977043,1149.143247
1374.483622,7624.121203,-6661.853478,1608.800546
1374.483951,6587.832884,-6883.915261,1455.581446
1374.484281,6217.729913,-5699.585753,1072.533697
1374.484610,6735.874072,-4515.256246,536.266849
1374.484939,8142.265362,-5995.668130,1991.848295
1374.485268,7772.162391,-6069.688724,1838.629195
1374.485597,5773.606348,-6661.853478,689.485948
1374.485926,5033.400406,-6513.812290,0.000000
1374.486255,5699.585753,-6661.853478,306.438199
1374.486584,6735.874072,-7772.162391,919.314598
1374.486913,6513.812290,-8734.430116,1532.190996
1374.487242,6291.750507,-7624.121203,1225.752797
1374.487571,6513.812290,-6735.874072,383.047749
1374.487901,7476.080014,-5995.668130,689.485948
1374.488230,8438.347739,-5255.462188,1455.581446
1374.488559,8290.306550,-6217.729913,1302.362347
1374.488888,7105.977043,-5699.585753,1378.971896
1374.489217,6661.853478,-6143.709319,1149.143247
1374.489546,6809.894666,-6883.915261,842.705048
1374.489875,7031.956449,-6587.832884,1072.533697
1374.490204,6513.812290,-7031.956449,1762.019645
1374.490533,6439.791695,-6439.791695,995.924147
1374.490862,7254.018232,-5255.462188,919.314598
1374.491192,8290.306550,-5107.421000,1608.800546
1374.491521,8956.491898,-5551.544565,1991.848295
1374.491850,8364.327145,-5773.606348,1915.238745
1374.492179,6957.935855,-6143.709319,1149.143247
1374.492508,5181.441594,-8586.388927,536.266849
1374.492837,5033.400406,-7254.018232,842.705048
1374.493166,5847.626942,-9104.533087,1149.143247
1374.493495,5921.647536,-8956.491898,1915.238745
1374.493824,6069.688724,-6365.771101,1455.581446
1374.494153,6587.832884,-6069.688724,76.609550
1374.494482,7254.018232,-4737.318029,459.657299
1374.494812,7920.203579,-5625.565159,766.095498
1374.495141,8068.244768,-6365.771101,1149.143247
1374.495470,6587.832884,-6809.894666,1302.362347
1374.495799,6809.894666,-7994.224174,995.924147
1374.496128,6957.935855,-7550.100608,995.924147
1374.496457,6957.935855,-7550.100608,1685.410096
1374.496786,7031.956449,-6587.832884,995.924147
1374.497115,6217.729913,-5847.626942,0.000000
1374.497444,6587.832884,-5255.462188,229.828649
1374.497773,7105.977043,-4737.318029,383.047749
1374.498102,7624.121203,-6217.729913,1915.238745
1374.498432,7698.141797,-6439.791695,1991.848295
1374.498761,6217.729913,-7254.018232,1149.143247
1374.499090,5625.565159,-7624.121203,1072.533697
1374.499419,6217.729913,-6809.894666,1072.533697
1374.499748,6513.812290,-7476.080014,1302.362347
1374.500077,6217.729913,-7179.997637,842.705048
1374.500406,6217.729913,-6291.750507,689.485948
1374.500735,6957.935855,-5477.523971,76.609550
1374.501064,7402.059420,-4811.338623,229.828649
1374.501393,8216.285956,-6217.729913,1072.533697
1374.501723,7994.224174,-7031.956449,1532.190996
1374.502052,7328.038826,-7254.018232,1225.752797
1374.502381,6735.874072,-6365.771101,842.705048
1374.502710,6883.915261,-5699.585753,306.438199
1374.503039,7550.100608,-6661.853478,995.924147
1374.503368,7624.121203,-6957.935855,1149.143247
1374.503697,6439.791695,-6291.750507,766.095498
1374.504026,6587.832884,-4885.359217,383.047749
1374.504355,7994.224174,-6513.812290,1608.800546
1374.504684,8216.285956,-5847.626942,1838.629195
1374.505013,7105.977043,-6217.729913,1302.362347
1374.505343,6291.750507,-6735.874072,383.047749
1374.505672,6587.832884,-6587.832884,383.047749
1374.506001,6587.832884,-6069.688724,229.828649
1374.506330,7179.997637,-9178.553681,2451.505594
1374.506659,7772.162391,-7031.956449,1072.533697
1374.506988,6439.791695,-5625.565159,536.266849
1374.507317,6365.771101,-5551.544565,153.219100
1374.507646,8142.265362,-4737.318029,306.438199
1374.507975,9178.553681,-6217.729913,1915.238745
1374.508304,8142.265362,-6957.935855,1762.019645
1374.508633,6513.812290,-7179.997637,842.705048
1374.508963,6217.729913,-7846.182985,766.095498
1374.509292,5847.626942,-7328.038826,306.438199
1374.509621,6143.709319,-7624.121203,766.095498
1374.509950,6069.688724,-7550.100608,766.095498
1374.510279,5921.647536,-6069.688724,-459.657299
1374.510608,6513.812290,-6513.812290,229.828649
1374.510937,7698.141797,-5403.503377,995.924147
1374.511266,9104.533087,-6439.791695,1762.019645
1374.511595,8586.388927,-6957.935855,2145.067394
1374.511924,5847.626942,-7105.977043,1149.143247
1374.512254,4441.235652,-6957.935855,0.000000
1374.512583,5551.544565,-7550.100608,0.000000
1374.512912,6883.915261,-8068.244768,1838.629195
1374.513241,7624.121203,-7402.059420,2221.676944
1374.513570,7105.977043,-6809.894666,1302.362347
1374.513899,6809.894666,-5477.523971,842.705048
1374.514228,7328.038826,-5033.400406,383.047749
1374.514557,7105.977043,-5107.421000,766.095498
1374.514886,6957.935855,-6365.771101,842.705048
1374.515215,6513.812290,-7105.977043,842.705048
1374.515544,6291.750507,-5921.647536,459.657299
1374.515874,6957.935855,-6291.750507,842.705048
1374.516203,7920.203579,-6735.874072,1149.143247
1374.516532,7994.224174,-6883.915261,1838.629195
1374.516861,7105.977043,-5033.400406,919.314598
1374.517190,7254.018232,-4367.215058,536.266849
1374.517519,8734.430116,-5033.400406,1762.019645
1374.517848,9696.697840,-6143.709319,3064.381992
1374.518177,8586.388927,-6439.791695,2528.115143
1374.518506,5995.668130,-6143.709319,1149.143247
1374.518835,4737.318029,-6069.688724,-229.828649
1374.519164,5033.400406,-7624.121203,0.000000
1374.519494,6143.709319,-8142.265362,1302.362347
1374.519823,6809.894666,-7698.141797,919.314598
1374.520152,6291.750507,-7179.997637,229.828649
1374.520481,5921.647536,-6143.709319,76.609550
1374.520810,6809.894666,-6217.729913,306.438199
1374.521139,7179.997637,-7031.956449,1455.581446
1374.521468,7105.977043,-7254.018232,1302.362347
1374.521797,6365.771101,-7105.977043,919.314598
1374.522126,6513.812290,-6439.791695,612.876398
1374.522455,7402.059420,-6735.874072,766.095498
1374.522785,8808.450710,-7402.059420,2298.286494
1374.523114,8142.265362,-6069.688724,1608.800546
1374.523443,6587.832884,-5699.585753,689.485948
1374.523772,6513.812290,-5107.421000,1532.190996
1374.524101,7920.203579,-5403.503377,612.876398
1374.524430,7476.080014,-6661.853478,1072.533697
1374.524759,6217.729913,-6809.894666,1149.143247
1374.525088,5255.462188,-7846.182985,383.047749
1374.525417,5625.565159,-7105.977043,229.828649
1374.525746,5551.544565,-8068.244768,1378.971896
1374.526075,7254.018232,-8882.471304,1762.019645
1374.526405,7624.121203,-7254.018232,1608.800546
1374.526734,6587.832884,-5773.606348,1762.019645
1374.527063,7550.100608,-4959.379811,919.314598
1374.527392,8956.491898,-3330.926739,1302.362347
1374.527721,9104.533087,-4663.297435,2145.067394
1374.528050,8438.347739,-6291.750507,2221.676944
1374.528379,7476.080014,-7105.977043,1532.190996
1374.528708,6439.791695,-6957.935855,842.705048
1374.529037,5255.462188,-7402.059420,459.657299
1374.529366,5477.523971,-7698.141797,612.876398
1374.529696,5773.606348,-7846.182985,612.876398
1374.530025,5773.606348,-7698.141797,536.266849
1374.530354,6809.894666,-5329.482782,1225.752797
1374.530683,8290.306550,-5699.585753,1072.533697
1374.531012,8290.306550,-6513.812290,1685.410096
1374.531341,6661.853478,-6957.935855,1838.629195
1374.531670,5403.503377,-7624.121203,229.828649
1374.531999,5329.482782,-7031.956449,229.828649
1374.532328,7179.997637,-6661.853478,995.924147
1374.532657,8882.471304,-6661.853478,2068.457845
1374.532986,8660.409521,-6217.729913,2528.115143
1374.533316,8142.265362,-5995.668130,1915.238745
1374.533645,6735.874072,-4663.297435,383.047749
1374.533974,6291.750507,-4737.318029,153.219100
1374.534303,6439.791695,-6365.771101,689.485948
1374.534632,6587.832884,-7328.038826,1455.581446
1374.534961,5995.668130,-7846.182985,1685.410096
1374.535290,6735.874072,-6957.935855,919.314598
1374.535619,7550.100608,-7105.977043,1991.848295
1374.535948,7476.080014,-6587.832884,1532.190996
1374.536277,7031.956449,-6735.874072,842.705048
1374.536606,5773.606348,-5403.503377,76.609550
1374.536936,6143.709319,-5847.626942,459.657299
1374.537265,7476.080014,-6365.771101,919.314598
1374.537594,8142.265362,-6513.812290,2221.676944
1374.537923,7254.018232,-7179.997637,1225.752797
1374.538252,5995.668130,-7105.977043,306.438199
1374.538581,5181.441594,-7254.018232,-76.609550
1374.538910,5921.647536,-8364.327145,459.657299
1374.539239,6957.935855,-7624.121203,1915.238745
1374.539568,7402.059420,-6143.709319,995.924147
1374.539897,6957.935855,-5033.400406,766.095498
1374.540227,7254.018232,-4737.318029,612.876398
1374.540556,8438.347739,-4737.318029,1455.581446
1374.540885,8660.409521,-6439.791695,1608.800546
1374.541214,8216.285956,-6513.812290,2221.676944
1374.541543,7624.121203,-5847.626942,995.924147
1374.541872,7105.977043,-6217.729913,1149.143247
1374.542201,7105.977043,-7179.997637,1762.019645
1374.542530,7328.038826,-7328.038826,1838.629195
1374.542859,7328.038826,-6587.832884,1072.533697
1374.543188,5921.647536,-6143.709319,842.705048
1374.543517,5699.585753,-7105.977043,766.095498
1374.543847,6365.771101,-6365.771101,229.828649
1374.544176,5773.606348,-7994.224174,919.314598
1374.544505,5625.565159,-8290.306550,995.924147
1374.544834,6069.688724,-7105.977043,919.314598
1374.545163,6291.750507,-7476.080014,1072.533697
1374.545492,6809.894666,-7772.162391,1149.143247
1374.545821,7328.038826,-7994.224174,1378.971896
1374.546150,7476.080014,-7254.018232,1149.143247
1374.546479,7624.121203,-5995.668130,383.047749
1374.546808,8290.306550,-4293.194464,1072.533697
1374.547137,8660.409521,-5033.400406,1149.143247
1374.547467,7846.182985,-5921.647536,1532.190996
1374.547796,6883.915261,-6291.750507,1302.362347
1374.548125,6883.915261,-6513.812290,459.657299
1374.548454,6735.874072,-5329.482782,919.314598
1374.548783,6661.853478,-5625.565159,689.485948
1374.549112,6735.874072,-7698.141797,1685.410096
1374.549441,6735.874072,-6217.729913,2298.286494
1374.549770,6291.750507,-6143.709319,919.314598
1374.550099,7476.080014,-5107.421000,995.924147
1374.550428,8586.388927,-4885.359217,1915.238745
1374.550758,8438.347739,-6587.832884,1915.238745
1374.551087,6513.812290,-6883.915261,1378.971896
1374.551416,5255.462188,-7698.141797,536.266849
1374.551745,5625.565159,-6735.874072,0.000000
1374.552074,6291.750507,-7698.141797,766.095498
1374.552403,6735.874072,-7920.203579,2068.457845
1374.552732,6957.935855,-7105.977043,995.924147
1374.553061,7031.956449,-5625.565159,766.095498
1374.553390,7105.977043,-4737.318029,612.876398
1374.553719,8586.388927,-5477.523971,995.924147
1374.554049,9104.533087,-6291.750507,1685.410096
1374.554378,7846.182985,-6587.832884,1378.971896
1374.554707,6143.709319,-7105.977043,689.485948
1374.555036,6809.894666,-6587.832884,842.705048
1374.555365,7402.059420,-7550.100608,995.924147
1374.555694,7105.977043,-7105.977043,1455.581446
1374.556023,6439.791695,-6513.812290,995.924147
1374.556352,6217.729913,-6439.791695,229.828649
1374.556682,7031.956449,-5995.668130,612.876398
1374.557011,8290.306550,-5995.668130,2068.457845
1374.557340,9030.512492,-6291.750507,1915.238745
1374.557669,7402.059420,-6291.750507,1762.019645
1374.557998,5551.544565,-7698.141797,842.705048
1374.558327,5477.523971,-7624.121203,306.438199
1374.558656,6365.771101,-7624.121203,995.924147
1374.558985,6587.832884,-8956.491898,1302.362347
1374.559314,5921.647536,-7476.080014,842.705048
1374.559644,5551.544565,-6809.894666,229.828649
1374.559973,6661.853478,-5847.626942,76.609550
1374.560302,7624.121203,-6217.729913,1455.581446
1374.560631,6883.915261,-6587.832884,1149.143247
1374.560960,7105.977043,-6661.853478,1225.752797
1374.561289,6439.791695,-6143.709319,536.266849
1374.561618,7105.977043,-5329.482782,1225.752797
1374.561947,8142.265362,-5847.626942,1608.800546
1374.562276,9104.533087,-5995.668130,2681.334243
1374.562606,8512.368333,-5625.565159,1532.190996
1374.562935,6809.894666,-5477.523971,612.876398
1374.563264,6661.853478,-5107.421000,536.266849
1374.563593,6513.812290,-7031.956449,995.924147
1374.563922,6513.812290,-8512.368333,1532.190996
1374.564251,5255.462188,-7920.203579,1225.752797
1374.564580,4663.297435,-7920.203579,0.000000
1374.564909,4589.276840,-7179.997637,0.000000
1374.565238,5773.606348,-8364.327145,1608.800546
1374.565568,7105.977043,-8290.306550,1915.238745
1374.565897,7105.977043,-5551.544565,919.314598
1374.566226,6735.874072,-4811.338623,766.095498
1374.566555,7698.141797,-4219.173869,766.095498
1374.566884,9326.594869,-4219.173869,1608.800546
1374.567213,9104.533087,-5403.503377,2068.457845
1374.567542,8438.347739,-5921.647536,2145.067394
1374.567871,7476.080014,-6587.832884,1608.800546
1374.568201,7105.977043,-5921.647536,1225.752797
1374.568530,6735.874072,-6439.791695,995.924147
1374.568859,6439.791695,-7031.956449,1072.533697
1374.569188,6291.750507,-6809.894666,689.485948
1374.569517,5699.585753,-6661.853478,842.705048
1374.569846,6513.812290,-5329.482782,842.705048
1374.570175,7698.141797,-5995.668130,1225.752797
1374.570504,7624.121203,-6883.915261,1685.410096
1374.570833,6809.894666,-6809.894666,919.314598
1374.571163,6143.709319,-6883.915261,306.438199
1374.571492,6735.874072,-6957.935855,766.095498
1374.571821,7402.059420,-7624.121203,1455.581446
1374.572150,7920.203579,-7328.038826,2451.505594
1374.572479,7846.182985,-6883.915261,1072.533697
1374.572808,7105.977043,-6883.915261,306.438199
1374.573137,7179.997637,-6217.729913,536.266849
1374.573466,7179.997637,-6439.791695,536.266849
1374.573795,6513.812290,-7179.997637,919.314598
1374.574125,5403.503377,-8068.244768,536.266849
1374.574454,4737.318029,-8364.327145,-306.438199
1374.574783,5181.441594,-6957.935855,0.000000
1374.575112,5921.647536,-7328.038826,919.314598
1374.575441,7179.997637,-7105.977043,842.705048
1374.575770,7402.059420,-6069.688724,766.095498
1374.576099,8142.265362,-5107.421000,383.047749
1374.576428,9178.553681,-4737.318029,1149.143247
1374.576758,9548.656652,-5699.585753,2145.067394
1374.577087,9104.533087,-6217.729913,2221.676944
1374.577416,7624.121203,-5995.668130,689.485948
1374.577745,5773.606348,-6809.894666,612.876398
1374.578074,5403.503377,-6587.832884,536.266849
1374.578403,5773.606348,-8216.285956,1225.752797
1374.578732,6143.709319,-7402.059420,1225.752797
1374.579061,5995.668130,-6365.771101,766.095498
1374.579390,6291.750507,-6143.709319,766.095498
1374.579720,7328.038826,-5033.400406,995.924147
1374.580049,8068.244768,-5107.421000,1225.752797
1374.580378,7105.977043,-5107.421000,383.047749
1374.580707,7179.997637,-5921.647536,1149.143247
1374.581036,7550.100608,-5921.647536,1378.971896
1374.581365,8586.388927,-6513.812290,1302.362347
1374.581694,8364.327145,-6661.853478,1762.019645
1374.582023,7994.224174,-6809.894666,1532.190996
1374.582352,7328.038826,-6883.915261,1149.143247
1374.582682,6809.894666,-5625.565159,1225.752797
1374.583011,7402.059420,-6439.791695,995.924147
1374.583340,7105.977043,-6883.915261,1302.362347
1374.583669,6143.709319,-7328.038826,919.314598
1374.583998,4811.338623,-7846.182985,842.705048
1374.584327,5033.400406,-7402.059420,1149.143247
1374.584656,5477.523971,-7994.224174,1072.533697
1374.584985,5699.585753,-8142.265362,1225.752797
1374.585314,5625.565159,-7328.038826,842.705048
1374.585644,6069.688724,-6513.812290,536.266849
1374.585973,7105.977043,-5625.565159,1149.143247
1374.586302,8290.306550,-4959.379811,1838.629195
1374.586631,9252.574275,-5329.482782,1532.190996
1374.586960,8660.409521,-5403.503377,1838.629195
1374.587289,7698.141797,-6069.688724,1455.581446
1374.587618,7254.018232,-6587.832884,995.924147
1374.587947,7105.977043,-6957.935855,1225.752797
1374.588277,6809.894666,-8290.306550,1302.362347
1374.588606,6069.688724,-7179.997637,536.266849
1374.588935,5551.544565,-6365.771101,0.000000
1374.589264,6217.729913,-5921.647536,306.438199
1374.589593,7920.203579,-5329.482782,1302.362347
1374.589922,8068.244768,-5995.668130,1225.752797
1374.590251,7328.038826,-6069.688724,1378.971896
1374.590580,6513.812290,-5329.482782,1149.143247
1374.590909,6365.771101,-6217.729913,306.438199
1374.591239,6291.750507,-7624.121203,766.095498
1374.591568,7105.977043,-8808.450710,2068.457845
1374.591897,8290.306550,-7698.141797,1762.019645
1374.592226,7179.997637,-6809.894666,1072.533697
1374.592555,6735.874072,-6217.729913,459.657299
1374.592884,7105.977043,-5699.585753,536.266849
1374.593213,7846.182985,-6661.853478,1072.533697
1374.593542,5995.668130,-7105.977043,842.705048
1374.593871,4885.359217,-7476.080014,306.438199
1374.594201,5329.482782,-7772.162391,459.657299
1374.594530,6143.709319,-7550.100608,612.876398
1374.594859,6661.853478,-8142.265362,2068.457845
1374.595188,6143.709319,-8512.368333,1532.190996
1374.595517,4959.379811,-7254.018232,0.000000
1374.595846,5477.523971,-6735.874072,306.438199
1374.596175,7105.977043,-6883.915261,766.095498
1374.596504,7994.224174,-7328.038826,919.314598
1374.596833,7031.956449,-8364.327145,2068.457845
1374.597163,5181.441594,-9252.574275,1072.533697
1374.597492,4589.276840,-9696.697840,0.000000
1374.597821,3404.947333,-9252.574275,0.000000
1374.598150,3997.112087,-9178.553681,383.047749
1374.598479,4885.359217,-8438.347739,383.047749
1374.598808,5625.565159,-7698.141797,1149.143247
1374.599137,6513.812290,-6365.771101,2145.067394
1374.599466,7994.224174,-4145.153275,2451.505594
1374.599796,8734.430116,-2886.803174,2681.334243
1374.600125,8438.347739,-3034.844362,2681.334243
1374.600454,8364.327145,-4071.132681,2451.505594
1374.600783,7328.038826,-5625.565159,2451.505594
1374.601112,7105.977043,-6069.688724,1225.752797
1374.601441,6291.750507,-8364.327145,842.705048
1374.601770,4515.256246,-10436.903782,1225.752797
1374.602099,2516.700203,-12361.439231,383.047749
1374.602428,1406.391290,-11473.192101,383.047749
1374.602758,2368.659014,-10066.800811,-689.485948
1374.603087,3923.091493,-10288.862594,-306.438199
1374.603416,5107.421000,-9474.636058,1762.019645
1374.603745,4737.318029,-9770.718434,2068.457845
1374.604074,4219.173869,-8364.327145,1149.143247
1374.604403,4219.173869,-6587.832884,1072.533697
1374.604732,3849.070898,-8068.244768,919.314598
1374.605061,5033.400406,-8068.244768,1225.752797
1374.605390,5699.585753,-9992.780217,3217.601092
1374.605720,5625.565159,-8142.265362,1915.238745
1374.606049,5625.565159,-5773.606348,919.314598
1374.606378,6069.688724,-6291.750507,1455.581446
1374.606707,6587.832884,-7772.162391,459.657299
1374.607036,6069.688724,-8512.368333,1378.971896
1374.607365,5329.482782,-9844.739029,1685.410096
1374.607694,4737.318029,-9622.677246,612.876398
1374.608023,4589.276840,-9030.512492,689.485948
1374.608352,3997.112087,-9252.574275,0.000000
1374.608682,3552.988522,-9992.780217,229.828649
1374.609011,3997.112087,-11177.109724,1149.143247
1374.609340,3775.050304,-10881.027347,536.266849
1374.609669,4071.132681,-9104.533087,459.657299
1374.609998,3997.112087,-8512.368333,76.609550
1374.610327,4515.256246,-8586.388927,-153.219100
1374.610656,5477.523971,-9474.636058,1072.533697
1374.610985,6439.791695,-9326.594869,2145.067394
1374.611315,7328.038826,-7179.997637,2374.896044
1374.611644,7698.141797,-5477.523971,1762.019645
1374.611973,6809.894666,-6587.832884,1838.629195
1374.612302,5477.523971,-8216.285956,1762.019645
1374.612631,4737.318029,-8586.388927,1608.800546
1374.612960,3627.009116,-8068.244768,229.828649
1374.613289,3256.906145,-8290.306550,-383.047749
1374.613618,3256.906145,-8660.409521,536.266849
1374.613947,3182.885551,-10881.027347,689.485948
1374.614277,3627.009116,-11621.233289,919.314598
1374.614606,3478.967927,-8956.491898,995.924147
1374.614935,4589.276840,-6883.915261,383.047749
1374.615264,5773.606348,-6291.750507,1072.533697
1374.615593,6809.894666,-6143.709319,1302.362347
1374.615922,7402.059420,-6587.832884,1378.971896
1374.616251,6883.915261,-7105.977043,1762.019645
1374.616580,7105.977043,-7920.203579,1685.410096
1374.616909,6439.791695,-8956.491898,1608.800546
1374.617239,4441.235652,-9918.759623,1302.362347
1374.617568,3034.844362,-11029.068536,0.000000
1374.617897,1628.453072,-11103.089130,-153.219100
1374.618226,1998.556043,-10584.944971,-383.047749
1374.618555,3404.947333,-10436.903782,229.828649
1374.618884,4737.318029,-9474.636058,1455.581446
1374.619213,5329.482782,-8808.450710,1991.848295
1374.619542,5403.503377,-7698.141797,1915.238745
1374.619872,6439.791695,-5847.626942,2451.505594
1374.620201,7476.080014,-4959.379811,2604.724693
1374.620530,8142.265362,-4293.194464,3217.601092
1374.620859,7624.121203,-4737.318029,2681.334243
1374.621188,6809.894666,-5403.503377,1532.190996
1374.621517,5995.668130,-7550.100608,536.266849
1374.621846,4885.359217,-9178.553681,536.266849
1374.622175,3997.112087,-10955.047942,229.828649
1374.622504,3330.926739,-12435.459826,0.000000
1374.622834,3182.885551,-12435.459826,995.924147
1374.623163,3849.070898,-13101.645173,842.705048
1374.623492,2886.803174,-12361.439231,766.095498
1374.623821,1998.556043,-10881.027347,536.266849
1374.624150,2146.597232,-10807.006753,689.485948
1374.624479,2664.741391,-9770.718434,766.095498
1374.624808,4293.194464,-7550.100608,2757.943793
1374.625137,6957.935855,-5107.421000,2604.724693
1374.625466,8438.347739,-3404.947333,2528.115143
1374.625796,8290.306550,-3923.091493,2604.724693
1374.626125,7179.997637,-3923.091493,995.924147
1374.626454,5107.421000,-4959.379811,-229.828649
1374.626783,3478.967927,-9104.533087,-536.266849
1374.627112,3404.947333,-12509.480420,536.266849
1374.627441,3182.885551,-14211.954086,689.485948
1374.627770,3701.029710,-15100.201217,995.924147
1374.628099,4885.359217,-13249.686362,1762.019645
1374.628428,5847.626942,-10955.047942,1532.190996
1374.628758,4885.359217,-9400.615463,1762.019645
1374.629087,3775.050304,-7105.977043,995.924147
1374.629416,3701.029710,-6365.771101,536.266849
1374.629745,3552.988522,-5107.421000,1225.752797
1374.630074,4737.318029,-5107.421000,1532.190996
1374.630403,5847.626942,-4737.318029,1302.362347
1374.630732,6809.894666,-5403.503377,1072.533697
1374.631061,6439.791695,-6143.709319,995.924147
1374.631391,5995.668130,-8808.450710,306.438199
1374.631720,5625.565159,-9696.697840,0.000000
1374.632049,4737.318029,-11769.274478,536.266849
1374.632378,4367.215058,-12805.562797,383.047749
1374.632707,4441.235652,-11621.233289,1532.190996
1374.633036,5699.585753,-11991.336260,2221.676944
1374.633365,5847.626942,-9474.636058,1991.848295
1374.633694,5551.544565,-7254.018232,2451.505594
1374.634023,5699.585753,-6439.791695,2068.457845
1374.634353,6661.853478,-5329.482782,1991.848295
1374.634682,5625.565159,-5921.647536,2604.724693
1374.635011,6291.750507,-4959.379811,1762.019645
1374.635340,5995.668130,-4811.338623,1225.752797
1374.635669,5847.626942,-6217.729913,2298.286494
1374.635998,6365.771101,-8142.265362,1838.629195
1374.636327,5921.647536,-9178.553681,2451.505594
1374.636656,5625.565159,-9992.780217,2221.676944
1374.636985,4589.276840,-11399.171507,2681.334243
1374.637315,4959.379811,-10436.903782,2604.724693
1374.637644,5847.626942,-9548.656652,3140.991542
1374.637973,6143.709319,-8586.388927,3677.258390
1374.638302,6439.791695,-6513.812290,3983.696590
1374.638631,5699.585753,-5033.400406,2604.724693
1374.638960,5699.585753,-4811.338623,2528.115143
1374.639289,5255.462188,-5329.482782,1991.848295
1374.639618,5107.421000,-6217.729913,1378.971896
1374.639947,5477.523971,-6883.915261,2221.676944
1374.640277,6587.832884,-7402.059420,3370.820191
1374.640606,7105.977043,-7994.224174,3140.991542
1374.640935,6735.874072,-7772.162391,4060.306139
1374.641264,6735.874072,-8882.471304,3907.087040
1374.641593,6513.812290,-8660.409521,4060.306139
1374.641922,6513.812290,-7624.121203,4903.011187
1374.642251,7328.038826,-7031.956449,4443.353888
1374.642580,7772.162391,-5329.482782,5132.839837
1374.642910,7994.224174,-4441.235652,5056.230287
1374.643239,8290.306550,-4071.132681,5515.887586
1374.643568,7994.224174,-3478.967927,4519.963438
1374.643897,6661.853478,-4145.153275,3983.696590
1374.644226,6143.709319,-5477.523971,3677.258390
1374.644555,5995.668130,-7254.018232,4290.134789
1374.644884,6439.791695,-7476.080014,3907.087040
1374.645213,6809.894666,-8660.409521,4136.915689
1374.645542,6217.729913,-9178.553681,4136.915689
1374.645872,5181.441594,-9696.697840,4213.525239
1374.646201,4737.318029,-10881.027347,3294.210641
1374.646530,4145.153275,-10140.821405,3370.820191
1374.646859,4145.153275,-9622.677246,3524.039291
1374.647188,4811.338623,-8068.244768,4519.963438
1374.647517,6587.832884,-6439.791695,5132.839837
1374.647846,8364.327145,-4885.359217,6435.202183
1374.648175,9326.594869,-4071.132681,6588.421283
1374.648504,8734.430116,-3552.988522,5898.935335
1374.648834,8068.244768,-3108.864956,4519.963438
1374.649163,8068.244768,-3108.864956,3830.477490
1374.649492,8142.265362,-3775.050304,4673.182538
1374.649821,8512.368333,-5107.421000,4826.401637
1374.650150,8882.471304,-5773.606348,5056.230287
1374.650479,8808.450710,-6587.832884,4826.401637
1374.650808,7846.182985,-8142.265362,4903.011187
1374.651137,6217.729913,-9030.512492,4443.353888
1374.651466,4515.256246,-9992.780217,3907.087040
1374.651795,3330.926739,-10066.800811,3370.820191
1374.652124,2960.823768,-9252.574275,3447.429741
1374.652453,3627.009116,-9178.553681,3983.696590
1374.652782,4441.235652,-7920.203579,4213.525239
1374.653111,5329.482782,-6587.832884,4519.963438
1374.653440,6661.853478,-5107.421000,4596.572988
1374.653769,7402.059420,-3256.906145,5439.278036
1374.654098,9178.553681,-3256.906145,4903.011187
1374.654427,9918.759623,-2442.679609,4213.525239
1374.654756,9770.718434,-2812.782580,4596.572988
1374.655085,9178.553681,-4515.256246,4060.306139
1374.655414,7994.224174,-6587.832884,3907.087040
1374.655743,6439.791695,-7846.182985,3907.087040
1374.656072,5551.544565,-9252.574275,2145.067394
1374.656401,4885.359217,-10140.821405,2604.724693
1374.656730,5329.482782,-9400.615463,2757.943793
1374.657059,6217.729913,-8956.491898,3370.820191
1374.657388,6439.791695,-6883.915261,4366.744339
1374.657718,7402.059420,-4515.256246,4366.744339
1374.658047,8364.327145,-3701.029710,4213.525239
1374.658376,9178.553681,-3256.906145,4903.011187
1374.658705,10066.800811,-4219.173869,4903.011187
1374.659034,9030.512492,-4663.297435,3830.477490
1374.659363,7402.059420,-6217.729913,3064.381992
1374.659692,6069.688724,-7105.977043,1685.410096
1374.660021,5625.565159,-9178.553681,1991.848295
1374.660350,5107.421000,-9548.656652,2528.115143
1374.660679,5625.565159,-9770.718434,3140.991542
1374.661008,5551.544565,-8438.347739,3600.648841
1374.661337,6365.771101,-7624.121203,3524.039291
1374.661666,7105.977043,-6661.853478,4213.525239
1374.661995,7402.059420,-5773.606348,4749.792088
1374.662324,7920.203579,-5329.482782,4136.915689
1374.662653,7772.162391,-3701.029710,4290.134789
1374.662982,8512.368333,-2886.803174,4060.306139
1374.663311,9252.574275,-2442.679609,3677.258390
1374.663640,9474.636058,-4071.132681,4290.134789
1374.663969,9178.553681,-4367.215058,3983.696590
1374.664298,7772.162391,-6291.750507,2911.162892
1374.664627,6809.894666,-9474.636058,3600.648841
1374.664956,4885.359217,-11325.150913,3983.696590
1374.665285,3849.070898,-11917.315666,2911.162892
1374.665614,2442.679609,-10732.986159,2451.505594
1374.665943,1998.556043,-9030.512492,1762.019645
1374.666272,3627.009116,-7402.059420,2528.115143
1374.666601,4959.379811,-5403.503377,2451.505594
1374.666930,6735.874072,-5773.606348,4903.011187
1374.667259,8734.430116,-4959.379811,5515.887586
1374.667588,9474.636058,-3182.885551,6435.202183
1374.667917,9844.739029,-2886.803174,5975.544884
1374.668246,10807.006753,-1850.514855,5822.325785
1374.668575,10955.047942,-3182.885551,5132.839837
1374.668904,9622.677246,-4663.297435,3907.087040
1374.669233,7698.141797,-6217.729913,4290.134789
1374.669562,6365.771101,-9252.574275,3064.381992
1374.669891,4515.256246,-10881.027347,2221.676944
1374.670220,2220.617826,-12139.377449,2681.334243
1374.670549,2516.700203,-11621.233289,2604.724693
1374.670878,2960.823768,-9992.780217,2834.553343
1374.671207,3478.967927,-7031.956449,2834.553343
1374.671536,5699.585753,-5255.462188,3677.258390
1374.671865,8882.471304,-4293.194464,5515.887586
1374.672194,11251.130318,-3552.988522,5898.935335
1374.672523,11103.089130,-2516.700203,6281.983084
1374.672852,11103.089130,-1036.288319,5669.106685
1374.673181,9992.780217,-2146.597232,4443.353888
1374.673510,7476.080014,-4145.153275,4290.134789
1374.673839,7328.038826,-7105.977043,4213.525239
1374.674168,8290.306550,-8438.347739,3140.991542
1374.674497,7031.956449,-9474.636058,2681.334243
1374.674826,5181.441594,-9992.780217,2604.724693
1374.675155,4589.276840,-10436.903782,1608.800546
1374.675484,3330.926739,-9178.553681,766.095498
1374.675813,2738.761985,-8216.285956,1455.581446
1374.676142,5255.462188,-7105.977043,2068.457845
1374.676471,7328.038826,-5403.503377,3217.601092
1374.676800,7920.203579,-5107.421000,2987.772442
1374.677129,8512.368333,-4219.173869,3524.039291
1374.677458,9474.636058,-4293.194464,3753.867940
1374.677787,9474.636058,-4145.153275,3753.867940
1374.678117,9400.615463,-4071.132681,3294.210641
1374.678446,8882.471304,-4367.215058,3294.210641
1374.678775,8216.285956,-6069.688724,2451.505594
1374.679104,6439.791695,-6735.874072,1762.019645
1374.679433,5699.585753,-8438.347739,1838.629195
1374.679762,6513.812290,-9104.533087,1149.143247
1374.680091,5921.647536,-8586.388927,1149.143247
1374.680420,4885.359217,-8956.491898,1302.362347
1374.680749,5107.421000,-8734.430116,612.876398
1374.681078,5255.462188,-8438.347739,1762.019645
1374.681407,5625.565159,-6957.935855,1225.752797
1374.681736,6883.915261,-4367.215058,919.314598
1374.682065,8216.285956,-3552.988522,1532.190996
1374.682394,8808.450710,-3108.864956,1149.143247
1374.682723,7920.203579,-4145.153275,1762.019645
1374.683052,8956.491898,-5329.482782,2221.676944
1374.683381,9474.636058,-6069.688724,1915.238745
1374.683710,7846.182985,-7179.997637,995.924147
1374.684039,5181.441594,-8512.368333,0.000000
1374.684368,3849.070898,-10732.986159,-1072.533697
1374.684697,4071.132681,-10436.903782,-536.266849
1374.685026,4737.318029,-8956.491898,76.609550
1374.685355,6735.874072,-7328.038826,459.657299
1374.685684,7179.997637,-4737.318029,766.095498
1374.686013,7105.977043,-4737.318029,536.266849
1374.686342,7179.997637,-5625.565159,1302.362347
1374.686671,8734.430116,-4885.359217,1991.848295
1374.687000,9178.553681,-3701.029710,1378.971896
1374.687329,8216.285956,-2516.700203,689.485948
1374.687658,7105.977043,-4663.297435,1072.533697
1374.687987,6957.935855,-7402.059420,229.828649
1374.688316,7254.018232,-7846.182985,689.485948
1374.688645,7031.956449,-7031.956449,689.485948
1374.688974,7105.977043,-7031.956449,0.000000
1374.689303,6513.812290,-9474.636058,383.047749
1374.689632,5921.647536,-11177.109724,1608.800546
1374.689961,6365.771101,-9474.636058,1378.971896
1374.690290,6661.853478,-7698.141797,919.314598
1374.690619,5255.462188,-5255.462188,383.047749
1374.690948,4737.318029,-4737.318029,-306.438199
1374.691277,5773.606348,-6587.832884,1455.581446
1374.691606,7994.224174,-5255.462188,2374.896044
1374.691935,8882.471304,-3997.112087,2834.553343
1374.692264,9474.636058,-2442.679609,2757.943793
1374.692593,9400.615463,-3478.967927,1838.629195
1374.692922,8216.285956,-6365.771101,1762.019645
1374.693251,7476.080014,-5995.668130,2528.115143
1374.693580,7550.100608,-6883.915261,383.047749
1374.693909,6513.812290,-6883.915261,0.000000
1374.694238,5625.565159,-8438.347739,153.219100
1374.694567,5625.565159,-10732.986159,612.876398
1374.694896,5773.606348,-9622.677246,1455.581446
1374.695225,5847.626942,-8290.306550,1072.533697
1374.695554,6809.894666,-6735.874072,689.485948
1374.695883,7550.100608,-5107.421000,1838.629195
1374.696212,8142.265362,-5329.482782,2068.457845
1374.696541,7846.182985,-4219.173869,2374.896044
1374.696870,7772.162391,-3775.050304,1991.848295
1374.697199,7624.121203,-4293.194464,1302.362347
1374.697528,6217.729913,-5773.606348,1149.143247
1374.697857,5847.626942,-8290.306550,2068.457845
1374.698186,5995.668130,-8586.388927,1608.800546
1374.698516,6957.935855,-7772.162391,1685.410096
1374.698845,7105.977043,-6587.832884,919.314598
1374.699174,7328.038826,-6513.812290,689.485948
1374.699503,6661.853478,-7328.038826,842.705048
1374.699832,6069.688724,-7105.977043,536.266849
1374.700161,5699.585753,-6809.894666,306.438199
1374.700490,6365.771101,-5477.523971,612.876398
1374.700819,7105.977043,-5477.523971,1991.848295
1374.701148,7920.203579,-6883.915261,2681.334243
1374.701477,8142.265362,-6069.688724,2604.724693
1374.701806,8068.244768,-4737.318029,1685.410096
1374.702135,7550.100608,-4071.132681,383.047749
1374.702464,7254.018232,-4811.338623,1532.190996
1374.702793,7031.956449,-6809.894666,766.095498
1374.703122,6957.935855,-8142.265362,1762.019645
1374.703451,6365.771101,-8290.306550,1455.581446
1374.703780,6069.688724,-7920.203579,536.266849
1374.704109,4959.379811,-8364.327145,1072.533697
1374.704438,4737.318029,-9992.780217,919.314598
1374.704767,4367.215058,-7402.059420,612.876398
1374.705096,5847.626942,-6217.729913,612.876398
1374.705425,8364.327145,-3775.050304,1378.971896
1374.705754,8734.430116,-3552.988522,1762.019645
1374.706083,8364.327145,-5773.606348,1838.629195
1374.706412,7772.162391,-5551.544565,1762.019645
1374.706741,7920.203579,-5477.523971,1072.533697
1374.707070,7550.100608,-5107.421000,766.095498
1374.707399,7105.977043,-7476.080014,229.828649
1374.707728,7402.059420,-8438.347739,1149.143247
1374.708057,7624.121203,-8142.265362,229.828649
1374.708386,7105.977043,-7772.162391,459.657299
1374.708715,6735.874072,-6809.894666,536.266849
1374.709044,7105.977043,-6957.935855,0.000000
1374.709373,6735.874072,-7772.162391,842.705048
1374.709702,6809.894666,-6883.915261,1608.800546
1374.710031,7105.977043,-5847.626942,536.266849
1374.710360,7179.997637,-4959.379811,1072.533697
1374.710689,6143.709319,-5995.668130,1302.362347
1374.711018,6661.853478,-6587.832884,1532.190996
1374.711347,6587.832884,-5477.523971,1608.800546
1374.711676,6735.874072,-5255.462188,536.266849
1374.712005,7402.059420,-4959.379811,153.219100
1374.712334,7550.100608,-5995.668130,383.047749
1374.712663,6735.874072,-7624.121203,612.876398
1374.712992,6439.791695,-7254.018232,459.657299
1374.713321,6587.832884,-7105.977043,536.266849
1374.713650,6587.832884,-7698.141797,-612.876398
1374.713979,6513.812290,-8364.327145,229.828649
1374.714308,7105.977043,-8364.327145,842.705048
1374.714637,7772.162391,-6587.832884,612.876398
1374.714966,7920.203579,-4959.379811,536.266849
1374.715295,7254.018232,-4737.318029,1149.143247
1374.715624,7328.038826,-5181.441594,842.705048
1374.715953,7402.059420,-5329.482782,1302.362347
1374.716282,6661.853478,-6291.750507,1838.629195
1374.716611,6513.812290,-6291.750507,1149.143247
1374.716940,5995.668130,-5625.565159,153.219100
1374.717269,5181.441594,-7476.080014,842.705048
1374.717598,5625.565159,-9400.615463,1762.019645
1374.717927,6809.894666,-7920.203579,1302.362347
1374.718256,6661.853478,-6883.915261,842.705048
1374.718585,6069.688724,-4885.359217,0.000000
1374.718915,7179.997637,-5181.441594,536.266849
1374.719244,6957.935855,-7179.997637,995.924147
1374.719573,7254.018232,-6587.832884,1225.752797
1374.719902,7624.121203,-6661.853478,1685.410096
1374.720231,7994.224174,-6661.853478,1762.019645
1374.720560,7328.038826,-7846.182985,1838.629195
1374.720889,7105.977043,-7328.038826,1532.190996
1374.721218,7105.977043,-5847.626942,842.705048
1374.721547,7105.977043,-4811.338623,-76.609550
1374.721876,7179.997637,-4737.318029,766.095498
1374.722205,6809.894666,-6143.709319,842.705048
1374.722534,7254.018232,-6883.915261,1225.752797
1374.722863,7328.038826,-7402.059420,1838.629195
1374.723192,6809.894666,-7698.141797,1532.190996
1374.723521,7254.018232,-7476.080014,1685.410096
1374.723850,6809.894666,-8586.388927,1838.629195
1374.724179,6291.750507,-7624.121203,1608.800546
1374.724508,6365.771101,-5625.565159,1149.143247
1374.724837,6957.935855,-4663.297435,459.657299
1374.725166,8068.244768,-3108.864956,1072.533697
1374.725495,7476.080014,-4885.359217,1072.533697
1374.725824,7624.121203,-7105.977043,2221.676944
1374.726153,7846.182985,-6661.853478,2374.896044
1374.726482,7550.100608,-7402.059420,1532.190996
1374.726811,6217.729913,-7031.956449,612.876398
1374.727140,6069.688724,-8586.388927,689.485948
1374.727469,6439.791695,-8142.265362,153.219100
1374.727798,6291.750507,-6513.812290,153.219100
1374.728127,6439.791695,-5033.400406,536.266849
1374.728456,7550.100608,-4589.276840,0.000000
1374.728785,7624.121203,-5995.668130,1225.752797
1374.729114,7402.059420,-6883.915261,1685.410096
1374.729443,7550.100608,-7031.956449,2681.334243
1374.729772,7476.080014,-6365.771101,2145.067394
1374.730101,6957.935855,-6513.812290,1838.629195
1374.730430,5847.626942,-7402.059420,1915.238745
1374.730759,5329.482782,-7179.997637,1149.143247
1374.731088,5477.523971,-5255.462188,153.219100
1374.731417,5773.606348,-4589.276840,383.047749
1374.731746,7031.956449,-3923.091493,0.000000
1374.732075,8068.244768,-6365.771101,1225.752797
1374.732404,7920.203579,-8882.471304,2528.115143
1374.732733,7698.141797,-8290.306550,1915.238745
1374.733062,7402.059420,-7550.100608,689.485948
1374.733391,6809.894666,-7105.977043,536.266849
1374.733720,6143.709319,-8216.285956,0.000000
1374.734049,5995.668130,-7476.080014,-766.095498
1374.734378,6365.771101,-6291.750507,-689.485948
1374.734707,7254.018232,-6513.812290,-459.657299
1374.735036,7920.203579,-5107.421000,689.485948
1374.735365,7698.141797,-6661.853478,1685.410096
1374.735694,8068.244768,-7920.203579,2681.334243
1374.736023,7994.224174,-7476.080014,2145.067394
1374.736352,7402.059420,-6661.853478,919.314598
1374.736681,6513.812290,-5773.606348,153.219100
1374.737010,5921.647536,-7031.956449,919.314598
1374.737339,6069.688724,-7328.038826,612.876398
1374.737668,6291.750507,-5329.482782,229.828649
1374.737997,7105.977043,-4737.318029,306.438199
1374.738326,8142.265362,-4737.318029,1225.752797
1374.738655,8882.471304,-6143.709319,2221.676944
1374.738984,8216.285956,-7031.956449,2298.286494
1374.739314,7624.121203,-6735.874072,1762.019645
1374.739643,6957.935855,-6513.812290,919.314598
1374.739972,5995.668130,-5995.668130,-229.828649
1374.740301,5477.523971,-7994.224174,76.609550
1374.740630,6439.791695,-7402.059420,1225.752797
1374.740959,7105.977043,-5773.606348,383.047749
1374.741288,6587.832884,-5699.585753,229.828649
1374.741617,6809.894666,-5551.544565,306.438199
1374.741946,7476.080014,-6587.832884,1072.533697
1374.742275,7772.162391,-6291.750507,2298.286494
1374.742604,7624.121203,-6513.812290,2068.457845
1374.742933,7920.203579,-5995.668130,1302.362347
1374.743262,7254.018232,-6513.812290,612.876398
1374.743591,5847.626942,-7994.224174,306.438199
1374.743920,5255.462188,-6809.894666,229.828649
1374.744249,5551.544565,-5255.462188,-229.828649
1374.744578,7254.018232,-5255.462188,76.609550
1374.744907,7920.203579,-5255.462188,1302.362347
1374.745236,8438.347739,-7476.080014,2374.896044
1374.745565,9252.574275,-7624.121203,2987.772442
1374.745894,7328.038826,-7254.018232,2221.676944
1374.746223,5699.585753,-6439.791695,229.828649
1374.746552,4811.338623,-6217.729913,0.000000
1374.746881,5699.585753,-7624.121203,383.047749
1374.747210,6735.874072,-7402.059420,612.876398
1374.747539,6957.935855,-6217.729913,1225.752797
1374.747868,7179.997637,-5477.523971,459.657299
1374.748197,7254.018232,-5699.585753,459.657299
1374.748526,7105.977043,-7698.141797,1302.362347
1374.748855,7179.997637,-8586.388927,2221.676944
1374.749184,7698.141797,-7550.100608,1532.190996
1374.749513,7105.977043,-6883.915261,995.924147
1374.749842,6883.915261,-5551.544565,459.657299
1374.750171,6439.791695,-7994.224174,919.314598
1374.750500,6217.729913,-8290.306550,1225.752797
1374.750829,5329.482782,-6069.688724,536.266849
1374.751158,6365.771101,-4515.256246,76.609550
1374.751487,8142.265362,-4441.235652,995.924147
1374.751816,8660.409521,-6069.688724,2068.457845
1374.752145,8216.285956,-7254.018232,2987.772442
1374.752474,6735.874072,-6365.771101,2145.067394
1374.752803,6513.812290,-5255.462188,0.000000
1374.753132,6217.729913,-5699.585753,-229.828649
1374.753461,6365.771101,-7550.100608,1072.533697
1374.753791,6513.812290,-7624.121203,842.705048
1374.754120,6587.832884,-5921.647536,536.266849
1374.754449,6883.915261,-5329.482782,536.266849
1374.754778,7476.080014,-5625.565159,1225.752797
1374.755107,7624.121203,-6957.935855,1838.629195
1374.755436,7698.141797,-7550.100608,2451.505594
1374.755765,6883.915261,-6809.894666,1685.410096
1374.756094,6439.791695,-5995.668130,612.876398
1374.756423,5995.668130,-5773.606348,612.876398
1374.756752,6069.688724,-6883.915261,306.438199
1374.757082,6661.853478,-6883.915261,1302.362347
1374.757411,7328.038826,-5995.668130,919.314598
1374.757740,7772.162391,-5255.462188,1225.752797
1374.758069,8734.430116,-5773.606348,1991.848295
1374.758398,8512.368333,-7179.997637,1685.410096
1374.758727,7624.121203,-6587.832884,1302.362347
1374.759056,6735.874072,-6069.688724,306.438199
1374.759385,6217.729913,-6735.874072,0.000000
1374.759714,7031.956449,-6513.812290,383.047749
1374.760043,6587.832884,-8364.327145,995.924147
1374.760373,6883.915261,-7772.162391,1378.971896
1374.760702,6661.853478,-5625.565159,1225.752797
1374.761031,7254.018232,-5551.544565,306.438199
1374.761360,7328.038826,-5403.503377,1225.752797
1374.761689,7550.100608,-7105.977043,1532.190996
1374.762018,7994.224174,-7402.059420,2145.067394
1374.762347,7476.080014,-7328.038826,1762.019645
1374.762676,7105.977043,-6735.874072,1149.143247
1374.763005,5995.668130,-7402.059420,153.219100
1374.763334,5181.441594,-8438.347739,76.609550
1374.763664,5329.482782,-7105.977043,689.485948
1374.763993,6143.709319,-5847.626942,306.438199
1374.764322,7476.080014,-4737.318029,1072.533697
1374.764651,7846.182985,-4737.318029,919.314598
1374.764980,7476.080014,-6809.894666,1532.190996
1374.765309,7254.018232,-7105.977043,1915.238745
1374.765638,6661.853478,-6883.915261,919.314598
1374.765967,5995.668130,-6365.771101,229.828649
1374.766296,6513.812290,-7031.956449,612.876398
1374.766626,6809.894666,-8290.306550,1225.752797
1374.766955,6809.894666,-7105.977043,1149.143247
1374.767284,7105.977043,-5625.565159,766.095498
1374.767613,7402.059420,-5033.400406,919.314598
1374.767942,7698.141797,-4737.318029,919.314598
1374.768271,7179.997637,-6587.832884,2298.286494
1374.768600,7772.162391,-7031.956449,2451.505594
1374.768929,7994.224174,-6439.791695,1991.848295
1374.769258,6735.874072,-5921.647536,0.000000
1374.769587,5551.544565,-6735.874072,0.000000
1374.769917,5551.544565,-8438.347739,536.266849
1374.770246,6439.791695,-7476.080014,842.705048
1374.770575,6439.791695,-6809.894666,0.000000
1374.770904,7476.080014,-5699.585753,1455.581446
1374.771233,8586.388927,-5625.565159,919.314598
1374.771562,8512.368333,-6735.874072,2374.896044
1374.771891,8216.285956,-5773.606348,2221.676944
1374.772220,7550.100608,-6069.688724,689.485948
1374.772549,7031.956449,-5773.606348,536.266849
1374.772878,5995.668130,-5921.647536,-383.047749
1374.773208,6809.894666,-8216.285956,612.876398
1374.773537,7476.080014,-6513.812290,1302.362347
1374.773866,7031.956449,-6513.812290,153.219100
1374.774195,7179.997637,-5699.585753,842.705048
1374.774524,7920.203579,-5699.585753,383.047749
1374.774853,8586.388927,-7402.059420,1532.190996
1374.775182,8290.306550,-6809.894666,1838.629195
1374.775511,7105.977043,-6883.915261,1302.362347
1374.775840,6809.894666,-6291.750507,76.609550
1374.776169,5773.606348,-6809.894666,306.438199
1374.776499,4885.359217,-6957.935855,1072.533697
1374.776828,5921.647536,-7254.018232,1302.362347
1374.777157,6291.750507,-6291.750507,995.924147
1374.777486,6883.915261,-5625.565159,842.705048
1374.777815,7328.038826,-5773.606348,842.705048
1374.778144,7698.141797,-6217.729913,1685.410096
1374.778473,7328.038826,-7031.956449,1455.581446
1374.778802,6661.853478,-6809.894666,536.266849
1374.779131,6439.791695,-5773.606348,76.609550
1374.779460,6513.812290,-7624.121203,306.438199
1374.779790,6439.791695,-8290.306550,919.314598
1374.780119,6661.853478,-7402.059420,1378.971896
1374.780448,6809.894666,-5847.626942,153.219100
1374.780777,6883.915261,-5329.482782,842.705048
1374.781106,6957.935855,-5329.482782,306.438199
1374.781435,6883.915261,-6365.771101,1072.533697
1374.781764,7402.059420,-6735.874072,2145.067394
1374.782093,8142.265362,-6365.771101,2068.457845
1374.782422,6735.874072,-5995.668130,1378.971896
1374.782751,5403.503377,-6883.915261,1302.362347
1374.783081,5847.626942,-8512.368333,1302.362347
1374.783410,6439.791695,-7698.141797,1302.362347
1374.783739,7105.977043,-5551.544565,1455.581446
1374.784068,7476.080014,-4811.338623,612.876398
1374.784397,7550.100608,-5551.544565,1149.143247
1374.784726,7698.141797,-7031.956449,1608.800546
1374.785055,7328.038826,-6957.935855,919.314598
1374.785384,6735.874072,-6587.832884,1378.971896
1374.785713,6883.915261,-6735.874072,153.219100
1374.786042,6513.812290,-7994.224174,0.000000
1374.786372,6957.935855,-9252.574275,1149.143247
1374.786701,7328.038826,-7698.141797,766.095498
1374.787030,7402.059420,-5699.585753,229.828649
1374.787359,7550.100608,-5773.606348,306.438199
1374.787688,7550.100608,-6217.729913,383.047749
1374.788017,7402.059420,-7846.182985,1991.848295
1374.788346,8586.388927,-6217.729913,2221.676944
1374.788675,8142.265362,-5033.400406,1378.971896
1374.789004,6957.935855,-4367.215058,842.705048
1374.789333,6217.729913,-6217.729913,766.095498
1374.789663,6069.688724,-7920.203579,1685.410096
1374.789992,6587.832884,-5773.606348,1455.581446
1374.790321,6143.709319,-5329.482782,153.219100
1374.790650,6809.894666,-4737.318029,306.438199
1374.790979,7550.100608,-6217.729913,1225.752797
1374.791308,7402.059420,-8882.471304,2298.286494
1374.791637,7698.141797,-7550.100608,2681.334243
1374.791966,7105.977043,-7105.977043,1608.800546
1374.792295,7031.956449,-6069.688724,383.047749
1374.792624,5847.626942,-7105.977043,536.266849
1374.792954,5699.585753,-8142.265362,1072.533697
1374.793283,6587.832884,-6291.750507,459.657299
1374.793612,6513.812290,-5033.400406,229.828649
1374.793941,7105.977043,-4293.194464,383.047749
1374.794270,7179.997637,-4959.379811,995.924147
1374.794599,7476.080014,-7402.059420,1685.410096
1374.794928,7105.977043,-6735.874072,1608.800546
1374.795257,7031.956449,-7105.977043,1302.362347
1374.795586,7254.018232,-6661.853478,842.705048
1374.795916,7031.956449,-8068.244768,1302.362347
1374.796245,7031.956449,-9474.636058,1915.238745
